"USUBJID","VISIT","VISITNUM","VSDT","VSDY","VSCAT","VSTEST","VSSTRESU","VSSTRESN","VSSTNRLO","VSSTNRHI"
"01-001","Screening","0","2015-05-21","1","Vital Signs","Diastolic Blood Pressure","mmHg",67.9467098606831,"60","80"
"01-001","Screening","0","2015-05-21","1","Vital Signs","Heart Rate","beats/minute",70.8427632226944,"50","80"
"01-001","Screening","0","2015-05-21","1","Vital Signs","Respiratory Rate","breaths/minute",15.4137662310258,"16","20"
"01-001","Screening","0","2015-05-21","1","Vital Signs","Systolic Blood Pressure","mmHg",77.3492126417281,"90","120"
"01-001","Screening","0","2015-05-21","1","Vital Signs","Temperature","°C",36.8491787281381,"36.6","37"
"01-001","Early Termination","6.9","2015-05-26","6","Vital Signs","Diastolic Blood Pressure","mmHg",57.3831459384925,"60","80"
"01-001","Early Termination","6.9","2015-05-26","6","Vital Signs","Heart Rate","beats/minute",95.9873858220087,"50","80"
"01-001","Early Termination","6.9","2015-05-26","6","Vital Signs","Respiratory Rate","breaths/minute",18.0364284621797,"16","20"
"01-001","Early Termination","6.9","2015-05-26","6","Vital Signs","Systolic Blood Pressure","mmHg",104.916517981808,"90","120"
"01-001","Early Termination","6.9","2015-05-26","6","Vital Signs","Temperature","°C",36.5476914221918,"36.6","37"
"01-002","Screening","0","2015-05-30","1","Vital Signs","Diastolic Blood Pressure","mmHg",78.0360943581664,"60","80"
"01-002","Screening","0","2015-05-30","1","Vital Signs","Heart Rate","beats/minute",54.1629238105171,"50","80"
"01-002","Screening","0","2015-05-30","1","Vital Signs","Respiratory Rate","breaths/minute",14.4784335981466,"16","20"
"01-002","Screening","0","2015-05-30","1","Vital Signs","Systolic Blood Pressure","mmHg",79.4293457783901,"90","120"
"01-002","Screening","0","2015-05-30","1","Vital Signs","Temperature","°C",36.9804430500838,"36.6","37"
"01-002","Visit 1","1","2015-07-29","61","Vital Signs","Diastolic Blood Pressure","mmHg",,"60","80"
"01-002","Visit 1","1","2015-07-29","61","Vital Signs","Heart Rate","beats/minute",53.9902888804933,"50","80"
"01-002","Visit 1","1","2015-07-29","61","Vital Signs","Respiratory Rate","breaths/minute",19.7354221146393,"16","20"
"01-002","Visit 1","1","2015-07-29","61","Vital Signs","Systolic Blood Pressure","mmHg",93.5115591048986,"90","120"
"01-002","Visit 1","1","2015-07-29","61","Vital Signs","Temperature","°C",36.5785360543794,"36.6","37"
"01-002","Visit 2","2","2015-09-17","111","Vital Signs","Diastolic Blood Pressure","mmHg",89.3429816297352,"60","80"
"01-002","Visit 2","2","2015-09-17","111","Vital Signs","Heart Rate","beats/minute",60.7785043839416,"50","80"
"01-002","Visit 2","2","2015-09-17","111","Vital Signs","Respiratory Rate","breaths/minute",19.3924313238689,"16","20"
"01-002","Visit 2","2","2015-09-17","111","Vital Signs","Systolic Blood Pressure","mmHg",131.073370032525,"90","120"
"01-002","Visit 2","2","2015-09-17","111","Vital Signs","Temperature","°C",36.3728612121384,"36.6","37"
"01-003","Screening","0","2015-08-13","1","Vital Signs","Diastolic Blood Pressure","mmHg",67.2047095641558,"60","80"
"01-003","Screening","0","2015-08-13","1","Vital Signs","Heart Rate","beats/minute",54.8341857697348,"50","80"
"01-003","Screening","0","2015-08-13","1","Vital Signs","Respiratory Rate","breaths/minute",19.1945828935216,"16","20"
"01-003","Screening","0","2015-08-13","1","Vital Signs","Systolic Blood Pressure","mmHg",111.769972094393,"90","120"
"01-003","Screening","0","2015-08-13","1","Vital Signs","Temperature","°C",36.6761462111935,"36.6","37"
"01-003","Visit 1","1","2015-10-04","53","Vital Signs","Diastolic Blood Pressure","mmHg",,"60","80"
"01-003","Visit 1","1","2015-10-04","53","Vital Signs","Heart Rate","beats/minute",79.6812724160716,"50","80"
"01-003","Visit 1","1","2015-10-04","53","Vital Signs","Respiratory Rate","breaths/minute",19.252196751089,"16","20"
"01-003","Visit 1","1","2015-10-04","53","Vital Signs","Systolic Blood Pressure","mmHg",113.471606409852,"90","120"
"01-003","Visit 1","1","2015-10-04","53","Vital Signs","Temperature","°C",36.6681106917233,"36.6","37"
"01-003","Visit 2","2","2015-12-08","118","Vital Signs","Diastolic Blood Pressure","mmHg",84.3323498593591,"60","80"
"01-003","Visit 2","2","2015-12-08","118","Vital Signs","Heart Rate","beats/minute",70.6216276396264,"50","80"
"01-003","Visit 2","2","2015-12-08","118","Vital Signs","Respiratory Rate","breaths/minute",16.0923807829189,"16","20"
"01-003","Visit 2","2","2015-12-08","118","Vital Signs","Systolic Blood Pressure","mmHg",108.230781054268,"90","120"
"01-003","Visit 2","2","2015-12-08","118","Vital Signs","Temperature","°C",36.7887893923423,"36.6","37"
"01-004","Screening","0","2015-01-12","1","Vital Signs","Diastolic Blood Pressure","mmHg",66.0526405581847,"60","80"
"01-004","Screening","0","2015-01-12","1","Vital Signs","Heart Rate","beats/minute",50.9095322418809,"50","80"
"01-004","Screening","0","2015-01-12","1","Vital Signs","Respiratory Rate","breaths/minute",18.4397444597733,"16","20"
"01-004","Screening","0","2015-01-12","1","Vital Signs","Systolic Blood Pressure","mmHg",125.678868871029,"90","120"
"01-004","Screening","0","2015-01-12","1","Vital Signs","Temperature","°C",36.9109162121549,"36.6","37"
"01-004","Visit 1","1","2015-03-02","50","Vital Signs","Diastolic Blood Pressure","mmHg",,"60","80"
"01-004","Visit 1","1","2015-03-02","50","Vital Signs","Heart Rate","beats/minute",44.6658207446181,"50","80"
"01-004","Visit 1","1","2015-03-02","50","Vital Signs","Respiratory Rate","breaths/minute",19.5728713852837,"16","20"
"01-004","Visit 1","1","2015-03-02","50","Vital Signs","Systolic Blood Pressure","mmHg",,"90","120"
"01-004","Visit 1","1","2015-03-02","50","Vital Signs","Temperature","°C",36.8150150923473,"36.6","37"
"01-005","Screening","0","2015-11-11","1","Vital Signs","Diastolic Blood Pressure","mmHg",83.0602454337036,"60","80"
"01-005","Screening","0","2015-11-11","1","Vital Signs","Heart Rate","beats/minute",43.2799768722904,"50","80"
"01-005","Screening","0","2015-11-11","1","Vital Signs","Respiratory Rate","breaths/minute",14.4981692677734,"16","20"
"01-005","Screening","0","2015-11-11","1","Vital Signs","Systolic Blood Pressure","mmHg",101.371529770937,"90","120"
"01-005","Screening","0","2015-11-11","1","Vital Signs","Temperature","°C",36.3969184652103,"36.6","37"
"01-005","Visit 1","1","2016-01-01","52","Vital Signs","Diastolic Blood Pressure","mmHg",,"60","80"
"01-005","Visit 1","1","2016-01-01","52","Vital Signs","Heart Rate","beats/minute",65.2188528165698,"50","80"
"01-005","Visit 1","1","2016-01-01","52","Vital Signs","Respiratory Rate","breaths/minute",17.6459576574879,"16","20"
"01-005","Visit 1","1","2016-01-01","52","Vital Signs","Systolic Blood Pressure","mmHg",106.782130424396,"90","120"
"01-005","Visit 1","1","2016-01-01","52","Vital Signs","Temperature","°C",37.0588454724314,"36.6","37"
"01-009","Screening","0","2015-11-25","1","Vital Signs","Diastolic Blood Pressure","mmHg",49.4837202387483,"60","80"
"01-009","Screening","0","2015-11-25","1","Vital Signs","Heart Rate","beats/minute",82.8823203845271,"50","80"
"01-009","Screening","0","2015-11-25","1","Vital Signs","Respiratory Rate","breaths/minute",18.573126358674,"16","20"
"01-009","Screening","0","2015-11-25","1","Vital Signs","Systolic Blood Pressure","mmHg",65.6589942764382,"90","120"
"01-009","Screening","0","2015-11-25","1","Vital Signs","Temperature","°C",36.8956165942728,"36.6","37"
"01-009","Visit 1","1","2016-01-24","61","Vital Signs","Diastolic Blood Pressure","mmHg",,"60","80"
"01-009","Visit 1","1","2016-01-24","61","Vital Signs","Heart Rate","beats/minute",62.1359084460055,"50","80"
"01-009","Visit 1","1","2016-01-24","61","Vital Signs","Respiratory Rate","breaths/minute",18.8915688973118,"16","20"
"01-009","Visit 1","1","2016-01-24","61","Vital Signs","Systolic Blood Pressure","mmHg",108.425236750854,"90","120"
"01-009","Visit 1","1","2016-01-24","61","Vital Signs","Temperature","°C",36.5572016807321,"36.6","37"
"01-009","Visit 2","2","2016-03-16","113","Vital Signs","Diastolic Blood Pressure","mmHg",77.4940484619128,"60","80"
"01-009","Visit 2","2","2016-03-16","113","Vital Signs","Heart Rate","beats/minute",64.5359790565978,"50","80"
"01-009","Visit 2","2","2016-03-16","113","Vital Signs","Respiratory Rate","breaths/minute",19.5823522737415,"16","20"
"01-009","Visit 2","2","2016-03-16","113","Vital Signs","Systolic Blood Pressure","mmHg",95.797649841334,"90","120"
"01-009","Visit 2","2","2016-03-16","113","Vital Signs","Temperature","°C",36.8592835700001,"36.6","37"
"01-010","Screening","0","2015-01-06","1","Vital Signs","Diastolic Blood Pressure","mmHg",69.5963871454794,"60","80"
"01-010","Screening","0","2015-01-06","1","Vital Signs","Heart Rate","beats/minute",67.5434295599935,"50","80"
"01-010","Screening","0","2015-01-06","1","Vital Signs","Respiratory Rate","breaths/minute",15.04844150142,"16","20"
"01-010","Screening","0","2015-01-06","1","Vital Signs","Systolic Blood Pressure","mmHg",109.491050934977,"90","120"
"01-010","Screening","0","2015-01-06","1","Vital Signs","Temperature","°C",36.9266205758052,"36.6","37"
"01-010","Visit 1","1","2015-02-23","49","Vital Signs","Diastolic Blood Pressure","mmHg",,"60","80"
"01-010","Visit 1","1","2015-02-23","49","Vital Signs","Heart Rate","beats/minute",61.884714848784,"50","80"
"01-010","Visit 1","1","2015-02-23","49","Vital Signs","Respiratory Rate","breaths/minute",19.0810499588012,"16","20"
"01-010","Visit 1","1","2015-02-23","49","Vital Signs","Systolic Blood Pressure","mmHg",117.12164034998,"90","120"
"01-010","Visit 1","1","2015-02-23","49","Vital Signs","Temperature","°C",36.9845852235511,"36.6","37"
"01-011","Screening","0","2015-10-04","1","Vital Signs","Diastolic Blood Pressure","mmHg",62.6422303623497,"60","80"
"01-011","Screening","0","2015-10-04","1","Vital Signs","Heart Rate","beats/minute",77.3806628170022,"50","80"
"01-011","Screening","0","2015-10-04","1","Vital Signs","Respiratory Rate","breaths/minute",,"16","20"
"01-011","Screening","0","2015-10-04","1","Vital Signs","Systolic Blood Pressure","mmHg",105.26420550843,"90","120"
"01-011","Screening","0","2015-10-04","1","Vital Signs","Temperature","°C",37.1112842905535,"36.6","37"
"01-011","Visit 1","1","2015-11-30","58","Vital Signs","Diastolic Blood Pressure","mmHg",,"60","80"
"01-011","Visit 1","1","2015-11-30","58","Vital Signs","Heart Rate","beats/minute",46.8341139648569,"50","80"
"01-011","Visit 1","1","2015-11-30","58","Vital Signs","Respiratory Rate","breaths/minute",21.2311908132143,"16","20"
"01-011","Visit 1","1","2015-11-30","58","Vital Signs","Systolic Blood Pressure","mmHg",116.012201924906,"90","120"
"01-011","Visit 1","1","2015-11-30","58","Vital Signs","Temperature","°C",36.9040139940817,"36.6","37"
"01-012","Screening","0","2015-04-18","1","Vital Signs","Diastolic Blood Pressure","mmHg",79.1904867843224,"60","80"
"01-012","Screening","0","2015-04-18","1","Vital Signs","Heart Rate","beats/minute",83.7721471525341,"50","80"
"01-012","Screening","0","2015-04-18","1","Vital Signs","Respiratory Rate","breaths/minute",17.0994719390928,"16","20"
"01-012","Screening","0","2015-04-18","1","Vital Signs","Systolic Blood Pressure","mmHg",118.995848085006,"90","120"
"01-012","Screening","0","2015-04-18","1","Vital Signs","Temperature","°C",36.5073945539854,"36.6","37"
"01-012","Visit 1","1","2015-06-06","50","Vital Signs","Diastolic Blood Pressure","mmHg",,"60","80"
"01-012","Visit 1","1","2015-06-06","50","Vital Signs","Heart Rate","beats/minute",68.6458101229868,"50","80"
"01-012","Visit 1","1","2015-06-06","50","Vital Signs","Respiratory Rate","breaths/minute",22.1151865846861,"16","20"
"01-012","Visit 1","1","2015-06-06","50","Vital Signs","Systolic Blood Pressure","mmHg",103.274565502826,"90","120"
"01-012","Visit 1","1","2015-06-06","50","Vital Signs","Temperature","°C",36.6387120645677,"36.6","37"
"01-012","Visit 3","3","2015-10-07","173","Vital Signs","Diastolic Blood Pressure","mmHg",72.2038778493554,"60","80"
"01-012","Visit 3","3","2015-10-07","173","Vital Signs","Heart Rate","beats/minute",73.8095648167025,"50","80"
"01-012","Visit 3","3","2015-10-07","173","Vital Signs","Respiratory Rate","breaths/minute",,"16","20"
"01-012","Visit 3","3","2015-10-07","173","Vital Signs","Systolic Blood Pressure","mmHg",83.084985881373,"90","120"
"01-012","Visit 3","3","2015-10-07","173","Vital Signs","Temperature","°C",36.8558876867788,"36.6","37"
"01-013","Screening","0","2015-07-15","1","Vital Signs","Diastolic Blood Pressure","mmHg",75.9480888685371,"60","80"
"01-013","Screening","0","2015-07-15","1","Vital Signs","Heart Rate","beats/minute",60.2155937943917,"50","80"
"01-013","Screening","0","2015-07-15","1","Vital Signs","Respiratory Rate","breaths/minute",16.2588898030988,"16","20"
"01-013","Screening","0","2015-07-15","1","Vital Signs","Systolic Blood Pressure","mmHg",83.2356273204574,"90","120"
"01-013","Screening","0","2015-07-15","1","Vital Signs","Temperature","°C",36.8671914119849,"36.6","37"
"01-013","Visit 1","1","2015-09-11","59","Vital Signs","Diastolic Blood Pressure","mmHg",,"60","80"
"01-013","Visit 1","1","2015-09-11","59","Vital Signs","Heart Rate","beats/minute",72.7458077987518,"50","80"
"01-013","Visit 1","1","2015-09-11","59","Vital Signs","Respiratory Rate","breaths/minute",14.7507804307273,"16","20"
"01-013","Visit 1","1","2015-09-11","59","Vital Signs","Systolic Blood Pressure","mmHg",115.062230153604,"90","120"
"01-013","Visit 1","1","2015-09-11","59","Vital Signs","Temperature","°C",36.8628757840792,"36.6","37"
"01-013","Visit 2","2","2015-10-27","105","Vital Signs","Diastolic Blood Pressure","mmHg",75.303852367261,"60","80"
"01-013","Visit 2","2","2015-10-27","105","Vital Signs","Heart Rate","beats/minute",47.9497038967719,"50","80"
"01-013","Visit 2","2","2015-10-27","105","Vital Signs","Respiratory Rate","breaths/minute",15.94171998367,"16","20"
"01-013","Visit 2","2","2015-10-27","105","Vital Signs","Systolic Blood Pressure","mmHg",95.4853973079558,"90","120"
"01-013","Visit 2","2","2015-10-27","105","Vital Signs","Temperature","°C",37.0205478899803,"36.6","37"
"01-013","Visit 3","3","2016-01-03","173","Vital Signs","Diastolic Blood Pressure","mmHg",67.9436932590303,"60","80"
"01-013","Visit 3","3","2016-01-03","173","Vital Signs","Heart Rate","beats/minute",62.311179893552,"50","80"
"01-013","Visit 3","3","2016-01-03","173","Vital Signs","Respiratory Rate","breaths/minute",,"16","20"
"01-013","Visit 3","3","2016-01-03","173","Vital Signs","Systolic Blood Pressure","mmHg",,"90","120"
"01-013","Visit 3","3","2016-01-03","173","Vital Signs","Temperature","°C",36.74234172568,"36.6","37"
"01-013","Visit 4","4","2016-02-23","224","Vital Signs","Diastolic Blood Pressure","mmHg",,"60","80"
"01-013","Visit 4","4","2016-02-23","224","Vital Signs","Heart Rate","beats/minute",,"50","80"
"01-013","Visit 4","4","2016-02-23","224","Vital Signs","Respiratory Rate","breaths/minute",19.7869398396238,"16","20"
"01-013","Visit 4","4","2016-02-23","224","Vital Signs","Systolic Blood Pressure","mmHg",95.2815014340498,"90","120"
"01-013","Visit 4","4","2016-02-23","224","Vital Signs","Temperature","°C",36.7424114280014,"36.6","37"
"01-013","Unscheduled 4.1","4.1","2016-03-02","232","Vital Signs","Diastolic Blood Pressure","mmHg",72.0953562493061,"60","80"
"01-013","Unscheduled 4.1","4.1","2016-03-02","232","Vital Signs","Heart Rate","beats/minute",64.1171456825495,"50","80"
"01-013","Unscheduled 4.1","4.1","2016-03-02","232","Vital Signs","Respiratory Rate","breaths/minute",20.6057982545154,"16","20"
"01-013","Unscheduled 4.1","4.1","2016-03-02","232","Vital Signs","Systolic Blood Pressure","mmHg",98.2903226687268,"90","120"
"01-013","Unscheduled 4.1","4.1","2016-03-02","232","Vital Signs","Temperature","°C",36.6976393696249,"36.6","37"
"01-013","Visit 5","5","2016-04-15","276","Vital Signs","Diastolic Blood Pressure","mmHg",84.8220753058711,"60","80"
"01-013","Visit 5","5","2016-04-15","276","Vital Signs","Heart Rate","beats/minute",51.415669692097,"50","80"
"01-013","Visit 5","5","2016-04-15","276","Vital Signs","Respiratory Rate","breaths/minute",17.3038668412975,"16","20"
"01-013","Visit 5","5","2016-04-15","276","Vital Signs","Systolic Blood Pressure","mmHg",,"90","120"
"01-013","Visit 5","5","2016-04-15","276","Vital Signs","Temperature","°C",36.6182477403154,"36.6","37"
"01-014","Screening","0","2015-07-24","1","Vital Signs","Diastolic Blood Pressure","mmHg",64.673042176822,"60","80"
"01-014","Screening","0","2015-07-24","1","Vital Signs","Heart Rate","beats/minute",69.6783922668525,"50","80"
"01-014","Screening","0","2015-07-24","1","Vital Signs","Respiratory Rate","breaths/minute",17.5924066049269,"16","20"
"01-014","Screening","0","2015-07-24","1","Vital Signs","Systolic Blood Pressure","mmHg",70.4733218899236,"90","120"
"01-014","Screening","0","2015-07-24","1","Vital Signs","Temperature","°C",37.2340017117041,"36.6","37"
"01-014","Visit 1","1","2015-09-17","56","Vital Signs","Diastolic Blood Pressure","mmHg",,"60","80"
"01-014","Visit 1","1","2015-09-17","56","Vital Signs","Heart Rate","beats/minute",51.586901305358,"50","80"
"01-014","Visit 1","1","2015-09-17","56","Vital Signs","Respiratory Rate","breaths/minute",,"16","20"
"01-014","Visit 1","1","2015-09-17","56","Vital Signs","Systolic Blood Pressure","mmHg",90.2554206070621,"90","120"
"01-014","Visit 1","1","2015-09-17","56","Vital Signs","Temperature","°C",36.4478250468044,"36.6","37"
"01-014","Visit 2","2","2015-11-14","114","Vital Signs","Diastolic Blood Pressure","mmHg",90.100134467154,"60","80"
"01-014","Visit 2","2","2015-11-14","114","Vital Signs","Heart Rate","beats/minute",57.9825494224215,"50","80"
"01-014","Visit 2","2","2015-11-14","114","Vital Signs","Respiratory Rate","breaths/minute",16.982969326002,"16","20"
"01-014","Visit 2","2","2015-11-14","114","Vital Signs","Systolic Blood Pressure","mmHg",96.9445120998125,"90","120"
"01-014","Visit 2","2","2015-11-14","114","Vital Signs","Temperature","°C",36.576165532376,"36.6","37"
"01-014","Visit 3","3","2016-01-09","170","Vital Signs","Diastolic Blood Pressure","mmHg",72.9707285992666,"60","80"
"01-014","Visit 3","3","2016-01-09","170","Vital Signs","Heart Rate","beats/minute",86.3504622830802,"50","80"
"01-014","Visit 3","3","2016-01-09","170","Vital Signs","Respiratory Rate","breaths/minute",,"16","20"
"01-014","Visit 3","3","2016-01-09","170","Vital Signs","Systolic Blood Pressure","mmHg",121.858628660209,"90","120"
"01-014","Visit 3","3","2016-01-09","170","Vital Signs","Temperature","°C",36.836330812821,"36.6","37"
"01-015","Screening","0","2015-04-28","1","Vital Signs","Diastolic Blood Pressure","mmHg",82.6927127060728,"60","80"
"01-015","Screening","0","2015-04-28","1","Vital Signs","Heart Rate","beats/minute",75.9949201349765,"50","80"
"01-015","Screening","0","2015-04-28","1","Vital Signs","Respiratory Rate","breaths/minute",16.8071994611498,"16","20"
"01-015","Screening","0","2015-04-28","1","Vital Signs","Systolic Blood Pressure","mmHg",132.721791894596,"90","120"
"01-015","Screening","0","2015-04-28","1","Vital Signs","Temperature","°C",36.8463274719731,"36.6","37"
"01-015","Visit 1","1","2015-06-15","49","Vital Signs","Diastolic Blood Pressure","mmHg",,"60","80"
"01-015","Visit 1","1","2015-06-15","49","Vital Signs","Heart Rate","beats/minute",55.7146801543175,"50","80"
"01-015","Visit 1","1","2015-06-15","49","Vital Signs","Respiratory Rate","breaths/minute",22.2648627836147,"16","20"
"01-015","Visit 1","1","2015-06-15","49","Vital Signs","Systolic Blood Pressure","mmHg",113.624043046493,"90","120"
"01-015","Visit 1","1","2015-06-15","49","Vital Signs","Temperature","°C",36.7275707711113,"36.6","37"
"01-015","Visit 2","2","2015-08-17","112","Vital Signs","Diastolic Blood Pressure","mmHg",61.4141146333772,"60","80"
"01-015","Visit 2","2","2015-08-17","112","Vital Signs","Heart Rate","beats/minute",41.3552860587444,"50","80"
"01-015","Visit 2","2","2015-08-17","112","Vital Signs","Respiratory Rate","breaths/minute",15.4365447801892,"16","20"
"01-015","Visit 2","2","2015-08-17","112","Vital Signs","Systolic Blood Pressure","mmHg",84.0513374001112,"90","120"
"01-015","Visit 2","2","2015-08-17","112","Vital Signs","Temperature","°C",36.7193862569198,"36.6","37"
"01-016","Screening","0","2015-12-21","1","Vital Signs","Diastolic Blood Pressure","mmHg",61.7703165139258,"60","80"
"01-016","Screening","0","2015-12-21","1","Vital Signs","Heart Rate","beats/minute",53.0253036905665,"50","80"
"01-016","Screening","0","2015-12-21","1","Vital Signs","Respiratory Rate","breaths/minute",15.2619712760887,"16","20"
"01-016","Screening","0","2015-12-21","1","Vital Signs","Systolic Blood Pressure","mmHg",120.336391649743,"90","120"
"01-016","Screening","0","2015-12-21","1","Vital Signs","Temperature","°C",36.4899725578164,"36.6","37"
"01-016","Visit 1","1","2016-02-09","51","Vital Signs","Diastolic Blood Pressure","mmHg",,"60","80"
"01-016","Visit 1","1","2016-02-09","51","Vital Signs","Heart Rate","beats/minute",67.052608467864,"50","80"
"01-016","Visit 1","1","2016-02-09","51","Vital Signs","Respiratory Rate","breaths/minute",16.091451041722,"16","20"
"01-016","Visit 1","1","2016-02-09","51","Vital Signs","Systolic Blood Pressure","mmHg",87.1976476611926,"90","120"
"01-016","Visit 1","1","2016-02-09","51","Vital Signs","Temperature","°C",36.7595751158045,"36.6","37"
"01-016","Visit 2","2","2016-04-15","117","Vital Signs","Diastolic Blood Pressure","mmHg",88.7637672750326,"60","80"
"01-016","Visit 2","2","2016-04-15","117","Vital Signs","Heart Rate","beats/minute",55.2396895981589,"50","80"
"01-016","Visit 2","2","2016-04-15","117","Vital Signs","Respiratory Rate","breaths/minute",18.5718295566261,"16","20"
"01-016","Visit 2","2","2016-04-15","117","Vital Signs","Systolic Blood Pressure","mmHg",114.432496112261,"90","120"
"01-016","Visit 2","2","2016-04-15","117","Vital Signs","Temperature","°C",36.7990446525921,"36.6","37"
"01-016","Visit 3","3","2016-06-09","172","Vital Signs","Diastolic Blood Pressure","mmHg",69.7778728154384,"60","80"
"01-016","Visit 3","3","2016-06-09","172","Vital Signs","Heart Rate","beats/minute",73.0121755363804,"50","80"
"01-016","Visit 3","3","2016-06-09","172","Vital Signs","Respiratory Rate","breaths/minute",,"16","20"
"01-016","Visit 3","3","2016-06-09","172","Vital Signs","Systolic Blood Pressure","mmHg",94.8776637110145,"90","120"
"01-016","Visit 3","3","2016-06-09","172","Vital Signs","Temperature","°C",36.566516650551,"36.6","37"
"01-016","Visit 4","4","2016-08-01","225","Vital Signs","Diastolic Blood Pressure","mmHg",66.5809935074147,"60","80"
"01-016","Visit 4","4","2016-08-01","225","Vital Signs","Heart Rate","beats/minute",53.7591793769799,"50","80"
"01-016","Visit 4","4","2016-08-01","225","Vital Signs","Respiratory Rate","breaths/minute",18.7830987683227,"16","20"
"01-016","Visit 4","4","2016-08-01","225","Vital Signs","Systolic Blood Pressure","mmHg",112.584386280902,"90","120"
"01-016","Visit 4","4","2016-08-01","225","Vital Signs","Temperature","°C",37.0693733653276,"36.6","37"
"01-017","Screening","0","2015-02-12","1","Vital Signs","Diastolic Blood Pressure","mmHg",58.484548003058,"60","80"
"01-017","Screening","0","2015-02-12","1","Vital Signs","Heart Rate","beats/minute",76.766232723959,"50","80"
"01-017","Screening","0","2015-02-12","1","Vital Signs","Respiratory Rate","breaths/minute",17.4637669722836,"16","20"
"01-017","Screening","0","2015-02-12","1","Vital Signs","Systolic Blood Pressure","mmHg",,"90","120"
"01-017","Screening","0","2015-02-12","1","Vital Signs","Temperature","°C",36.9223174671207,"36.6","37"
"01-017","Visit 1","1","2015-04-04","52","Vital Signs","Diastolic Blood Pressure","mmHg",,"60","80"
"01-017","Visit 1","1","2015-04-04","52","Vital Signs","Heart Rate","beats/minute",58.4765599885773,"50","80"
"01-017","Visit 1","1","2015-04-04","52","Vital Signs","Respiratory Rate","breaths/minute",20.5869778828831,"16","20"
"01-017","Visit 1","1","2015-04-04","52","Vital Signs","Systolic Blood Pressure","mmHg",116.720252183881,"90","120"
"01-017","Visit 1","1","2015-04-04","52","Vital Signs","Temperature","°C",36.9084816343512,"36.6","37"
"01-017","Visit 2","2","2015-06-01","110","Vital Signs","Diastolic Blood Pressure","mmHg",59.5037333310525,"60","80"
"01-017","Visit 2","2","2015-06-01","110","Vital Signs","Heart Rate","beats/minute",53.1396012219611,"50","80"
"01-017","Visit 2","2","2015-06-01","110","Vital Signs","Respiratory Rate","breaths/minute",15.1325210543095,"16","20"
"01-017","Visit 2","2","2015-06-01","110","Vital Signs","Systolic Blood Pressure","mmHg",98.2069914982695,"90","120"
"01-017","Visit 2","2","2015-06-01","110","Vital Signs","Temperature","°C",36.7820826862631,"36.6","37"
"01-018","Screening","0","2015-02-13","1","Vital Signs","Diastolic Blood Pressure","mmHg",76.6267493055624,"60","80"
"01-018","Screening","0","2015-02-13","1","Vital Signs","Heart Rate","beats/minute",42.0966641093789,"50","80"
"01-018","Screening","0","2015-02-13","1","Vital Signs","Respiratory Rate","breaths/minute",16.9815548639506,"16","20"
"01-018","Screening","0","2015-02-13","1","Vital Signs","Systolic Blood Pressure","mmHg",94.3841647025199,"90","120"
"01-018","Screening","0","2015-02-13","1","Vital Signs","Temperature","°C",37.0889197240402,"36.6","37"
"01-018","Visit 1","1","2015-04-04","51","Vital Signs","Diastolic Blood Pressure","mmHg",,"60","80"
"01-018","Visit 1","1","2015-04-04","51","Vital Signs","Heart Rate","beats/minute",78.0041839865597,"50","80"
"01-018","Visit 1","1","2015-04-04","51","Vital Signs","Respiratory Rate","breaths/minute",15.5699076185724,"16","20"
"01-018","Visit 1","1","2015-04-04","51","Vital Signs","Systolic Blood Pressure","mmHg",98.9959950753849,"90","120"
"01-018","Visit 1","1","2015-04-04","51","Vital Signs","Temperature","°C",36.8292860801983,"36.6","37"
"01-019","Screening","0","2015-04-24","1","Vital Signs","Diastolic Blood Pressure","mmHg",61.4558744711706,"60","80"
"01-019","Screening","0","2015-04-24","1","Vital Signs","Heart Rate","beats/minute",34.3140815743033,"50","80"
"01-019","Screening","0","2015-04-24","1","Vital Signs","Respiratory Rate","breaths/minute",17.2835427429571,"16","20"
"01-019","Screening","0","2015-04-24","1","Vital Signs","Systolic Blood Pressure","mmHg",105.693308712896,"90","120"
"01-019","Screening","0","2015-04-24","1","Vital Signs","Temperature","°C",37.2462336615859,"36.6","37"
"01-019","Visit 1","1","2015-06-15","53","Vital Signs","Diastolic Blood Pressure","mmHg",,"60","80"
"01-019","Visit 1","1","2015-06-15","53","Vital Signs","Heart Rate","beats/minute",75.4400542119675,"50","80"
"01-019","Visit 1","1","2015-06-15","53","Vital Signs","Respiratory Rate","breaths/minute",15.1397357793448,"16","20"
"01-019","Visit 1","1","2015-06-15","53","Vital Signs","Systolic Blood Pressure","mmHg",100.304634628606,"90","120"
"01-019","Visit 1","1","2015-06-15","53","Vital Signs","Temperature","°C",36.2957784114542,"36.6","37"
"01-019","Visit 2","2","2015-08-13","112","Vital Signs","Diastolic Blood Pressure","mmHg",51.1995700194801,"60","80"
"01-019","Visit 2","2","2015-08-13","112","Vital Signs","Heart Rate","beats/minute",72.9523983078826,"50","80"
"01-019","Visit 2","2","2015-08-13","112","Vital Signs","Respiratory Rate","breaths/minute",17.884639200256,"16","20"
"01-019","Visit 2","2","2015-08-13","112","Vital Signs","Systolic Blood Pressure","mmHg",116.371904351584,"90","120"
"01-019","Visit 2","2","2015-08-13","112","Vital Signs","Temperature","°C",36.9714800347754,"36.6","37"
"01-019","Visit 3","3","2015-10-01","161","Vital Signs","Diastolic Blood Pressure","mmHg",72.6537928573873,"60","80"
"01-019","Visit 3","3","2015-10-01","161","Vital Signs","Heart Rate","beats/minute",100.678711005596,"50","80"
"01-019","Visit 3","3","2015-10-01","161","Vital Signs","Respiratory Rate","breaths/minute",,"16","20"
"01-019","Visit 3","3","2015-10-01","161","Vital Signs","Systolic Blood Pressure","mmHg",119.879644962367,"90","120"
"01-019","Visit 3","3","2015-10-01","161","Vital Signs","Temperature","°C",36.8653140515141,"36.6","37"
"01-019","Visit 4","4","2015-12-01","222","Vital Signs","Diastolic Blood Pressure","mmHg",49.1273365858142,"60","80"
"01-019","Visit 4","4","2015-12-01","222","Vital Signs","Heart Rate","beats/minute",33.060903801035,"50","80"
"01-019","Visit 4","4","2015-12-01","222","Vital Signs","Respiratory Rate","breaths/minute",20.0849564031584,"16","20"
"01-019","Visit 4","4","2015-12-01","222","Vital Signs","Systolic Blood Pressure","mmHg",93.478487225696,"90","120"
"01-019","Visit 4","4","2015-12-01","222","Vital Signs","Temperature","°C",37.1118075304399,"36.6","37"
"01-021","Screening","0","2015-10-04","1","Vital Signs","Diastolic Blood Pressure","mmHg",67.0168001265409,"60","80"
"01-021","Screening","0","2015-10-04","1","Vital Signs","Heart Rate","beats/minute",77.4034820603532,"50","80"
"01-021","Screening","0","2015-10-04","1","Vital Signs","Respiratory Rate","breaths/minute",19.5924193857521,"16","20"
"01-021","Screening","0","2015-10-04","1","Vital Signs","Systolic Blood Pressure","mmHg",81.5403172940746,"90","120"
"01-021","Screening","0","2015-10-04","1","Vital Signs","Temperature","°C",36.7392361293616,"36.6","37"
"01-022","Screening","0","2015-10-01","1","Vital Signs","Diastolic Blood Pressure","mmHg",78.5790341537459,"60","80"
"01-022","Screening","0","2015-10-01","1","Vital Signs","Heart Rate","beats/minute",39.1678148411657,"50","80"
"01-022","Screening","0","2015-10-01","1","Vital Signs","Respiratory Rate","breaths/minute",16.9434562590265,"16","20"
"01-022","Screening","0","2015-10-01","1","Vital Signs","Systolic Blood Pressure","mmHg",102.231632844714,"90","120"
"01-022","Screening","0","2015-10-01","1","Vital Signs","Temperature","°C",36.723412496007,"36.6","37"
"01-022","Visit 1","1","2015-11-28","59","Vital Signs","Diastolic Blood Pressure","mmHg",,"60","80"
"01-022","Visit 1","1","2015-11-28","59","Vital Signs","Heart Rate","beats/minute",74.7912271386179,"50","80"
"01-022","Visit 1","1","2015-11-28","59","Vital Signs","Respiratory Rate","breaths/minute",22.2370222198628,"16","20"
"01-022","Visit 1","1","2015-11-28","59","Vital Signs","Systolic Blood Pressure","mmHg",116.118425024933,"90","120"
"01-022","Visit 1","1","2015-11-28","59","Vital Signs","Temperature","°C",36.6630098689222,"36.6","37"
"01-022","Visit 2","2","2016-01-21","113","Vital Signs","Diastolic Blood Pressure","mmHg",80.5595946231652,"60","80"
"01-022","Visit 2","2","2016-01-21","113","Vital Signs","Heart Rate","beats/minute",23.519246667662,"50","80"
"01-022","Visit 2","2","2016-01-21","113","Vital Signs","Respiratory Rate","breaths/minute",14.7913465245039,"16","20"
"01-022","Visit 2","2","2016-01-21","113","Vital Signs","Systolic Blood Pressure","mmHg",103.653279848144,"90","120"
"01-022","Visit 2","2","2016-01-21","113","Vital Signs","Temperature","°C",36.6026730550965,"36.6","37"
"01-022","Visit 3","3","2016-03-23","175","Vital Signs","Diastolic Blood Pressure","mmHg",75.9463246207498,"60","80"
"01-022","Visit 3","3","2016-03-23","175","Vital Signs","Heart Rate","beats/minute",75.8777778947534,"50","80"
"01-022","Visit 3","3","2016-03-23","175","Vital Signs","Respiratory Rate","breaths/minute",,"16","20"
"01-022","Visit 3","3","2016-03-23","175","Vital Signs","Systolic Blood Pressure","mmHg",97.0683855350498,"90","120"
"01-022","Visit 3","3","2016-03-23","175","Vital Signs","Temperature","°C",36.9465931958164,"36.6","37"
"01-022","Visit 4","4","2016-05-05","218","Vital Signs","Diastolic Blood Pressure","mmHg",64.81086092315,"60","80"
"01-022","Visit 4","4","2016-05-05","218","Vital Signs","Heart Rate","beats/minute",58.6400998067342,"50","80"
"01-022","Visit 4","4","2016-05-05","218","Vital Signs","Respiratory Rate","breaths/minute",16.2321657646172,"16","20"
"01-022","Visit 4","4","2016-05-05","218","Vital Signs","Systolic Blood Pressure","mmHg",124.1654759149,"90","120"
"01-022","Visit 4","4","2016-05-05","218","Vital Signs","Temperature","°C",37.0004460358047,"36.6","37"
"01-022","Visit 5","5","2016-07-02","276","Vital Signs","Diastolic Blood Pressure","mmHg",75.0659869396745,"60","80"
"01-022","Visit 5","5","2016-07-02","276","Vital Signs","Heart Rate","beats/minute",78.1360216880036,"50","80"
"01-022","Visit 5","5","2016-07-02","276","Vital Signs","Respiratory Rate","breaths/minute",17.8455580443972,"16","20"
"01-022","Visit 5","5","2016-07-02","276","Vital Signs","Systolic Blood Pressure","mmHg",,"90","120"
"01-022","Visit 5","5","2016-07-02","276","Vital Signs","Temperature","°C",36.6247064746034,"36.6","37"
"01-022","Visit 6","6","2016-09-06","342","Vital Signs","Diastolic Blood Pressure","mmHg",53.4553098924976,"60","80"
"01-022","Visit 6","6","2016-09-06","342","Vital Signs","Heart Rate","beats/minute",53.1342411379841,"50","80"
"01-022","Visit 6","6","2016-09-06","342","Vital Signs","Respiratory Rate","breaths/minute",16.0714328716075,"16","20"
"01-022","Visit 6","6","2016-09-06","342","Vital Signs","Systolic Blood Pressure","mmHg",111.870766870135,"90","120"
"01-022","Visit 6","6","2016-09-06","342","Vital Signs","Temperature","°C",36.6708593381696,"36.6","37"
"01-022","End of Study","7","2016-10-07","373","Vital Signs","Diastolic Blood Pressure","mmHg",67.1185116827757,"60","80"
"01-022","End of Study","7","2016-10-07","373","Vital Signs","Heart Rate","beats/minute",89.8225690611987,"50","80"
"01-022","End of Study","7","2016-10-07","373","Vital Signs","Respiratory Rate","breaths/minute",15.3223928157775,"16","20"
"01-022","End of Study","7","2016-10-07","373","Vital Signs","Systolic Blood Pressure","mmHg",,"90","120"
"01-022","End of Study","7","2016-10-07","373","Vital Signs","Temperature","°C",37.295777993481,"36.6","37"
"01-023","Screening","0","2015-03-29","1","Vital Signs","Diastolic Blood Pressure","mmHg",46.3094504855445,"60","80"
"01-023","Screening","0","2015-03-29","1","Vital Signs","Heart Rate","beats/minute",61.3374204675145,"50","80"
"01-023","Screening","0","2015-03-29","1","Vital Signs","Respiratory Rate","breaths/minute",18.0907732160832,"16","20"
"01-023","Screening","0","2015-03-29","1","Vital Signs","Systolic Blood Pressure","mmHg",124.853390625262,"90","120"
"01-023","Screening","0","2015-03-29","1","Vital Signs","Temperature","°C",36.6814197290404,"36.6","37"
"01-023","Visit 1","1","2015-05-22","55","Vital Signs","Diastolic Blood Pressure","mmHg",,"60","80"
"01-023","Visit 1","1","2015-05-22","55","Vital Signs","Heart Rate","beats/minute",77.8469441907861,"50","80"
"01-023","Visit 1","1","2015-05-22","55","Vital Signs","Respiratory Rate","breaths/minute",15.4501222944132,"16","20"
"01-023","Visit 1","1","2015-05-22","55","Vital Signs","Systolic Blood Pressure","mmHg",108.692524502173,"90","120"
"01-023","Visit 1","1","2015-05-22","55","Vital Signs","Temperature","°C",37.0317052873515,"36.6","37"
"01-023","Visit 2","2","2015-07-14","108","Vital Signs","Diastolic Blood Pressure","mmHg",57.6399615671457,"60","80"
"01-023","Visit 2","2","2015-07-14","108","Vital Signs","Heart Rate","beats/minute",53.4349498936716,"50","80"
"01-023","Visit 2","2","2015-07-14","108","Vital Signs","Respiratory Rate","breaths/minute",21.8290210754095,"16","20"
"01-023","Visit 2","2","2015-07-14","108","Vital Signs","Systolic Blood Pressure","mmHg",104.712899659193,"90","120"
"01-023","Visit 2","2","2015-07-14","108","Vital Signs","Temperature","°C",36.9182646029232,"36.6","37"
"01-024","Screening","0","2015-04-23","1","Vital Signs","Diastolic Blood Pressure","mmHg",84.8765348561969,"60","80"
"01-024","Screening","0","2015-04-23","1","Vital Signs","Heart Rate","beats/minute",61.0339920985116,"50","80"
"01-024","Screening","0","2015-04-23","1","Vital Signs","Respiratory Rate","breaths/minute",15.963872864891,"16","20"
"01-024","Screening","0","2015-04-23","1","Vital Signs","Systolic Blood Pressure","mmHg",96.5719029338585,"90","120"
"01-024","Screening","0","2015-04-23","1","Vital Signs","Temperature","°C",36.8131983214668,"36.6","37"
"01-024","Visit 1","1","2015-06-10","49","Vital Signs","Diastolic Blood Pressure","mmHg",,"60","80"
"01-024","Visit 1","1","2015-06-10","49","Vital Signs","Heart Rate","beats/minute",80.4607543700143,"50","80"
"01-024","Visit 1","1","2015-06-10","49","Vital Signs","Respiratory Rate","breaths/minute",20.0183032617693,"16","20"
"01-024","Visit 1","1","2015-06-10","49","Vital Signs","Systolic Blood Pressure","mmHg",119.876110157485,"90","120"
"01-024","Visit 1","1","2015-06-10","49","Vital Signs","Temperature","°C",36.6455087658155,"36.6","37"
"01-024","Visit 2","2","2015-08-09","109","Vital Signs","Diastolic Blood Pressure","mmHg",40.8149153498489,"60","80"
"01-024","Visit 2","2","2015-08-09","109","Vital Signs","Heart Rate","beats/minute",54.7712076636504,"50","80"
"01-024","Visit 2","2","2015-08-09","109","Vital Signs","Respiratory Rate","breaths/minute",18.7601451290191,"16","20"
"01-024","Visit 2","2","2015-08-09","109","Vital Signs","Systolic Blood Pressure","mmHg",86.3943963988473,"90","120"
"01-024","Visit 2","2","2015-08-09","109","Vital Signs","Temperature","°C",36.9802768675061,"36.6","37"
"01-025","Screening","0","2015-06-22","1","Vital Signs","Diastolic Blood Pressure","mmHg",58.9834553116034,"60","80"
"01-025","Screening","0","2015-06-22","1","Vital Signs","Heart Rate","beats/minute",72.9229654944211,"50","80"
"01-025","Screening","0","2015-06-22","1","Vital Signs","Respiratory Rate","breaths/minute",19.2201554568137,"16","20"
"01-025","Screening","0","2015-06-22","1","Vital Signs","Systolic Blood Pressure","mmHg",78.9938035792794,"90","120"
"01-025","Screening","0","2015-06-22","1","Vital Signs","Temperature","°C",37.0347546802342,"36.6","37"
"01-025","Visit 1","1","2015-08-15","55","Vital Signs","Diastolic Blood Pressure","mmHg",,"60","80"
"01-025","Visit 1","1","2015-08-15","55","Vital Signs","Heart Rate","beats/minute",42.0407858472698,"50","80"
"01-025","Visit 1","1","2015-08-15","55","Vital Signs","Respiratory Rate","breaths/minute",17.5985607418236,"16","20"
"01-025","Visit 1","1","2015-08-15","55","Vital Signs","Systolic Blood Pressure","mmHg",111.898085572383,"90","120"
"01-025","Visit 1","1","2015-08-15","55","Vital Signs","Temperature","°C",36.9888728681288,"36.6","37"
"01-026","Screening","0","2015-02-19","1","Vital Signs","Diastolic Blood Pressure","mmHg",73.8368628916963,"60","80"
"01-026","Screening","0","2015-02-19","1","Vital Signs","Heart Rate","beats/minute",64.2092948580069,"50","80"
"01-026","Screening","0","2015-02-19","1","Vital Signs","Respiratory Rate","breaths/minute",21.5819575221692,"16","20"
"01-026","Screening","0","2015-02-19","1","Vital Signs","Systolic Blood Pressure","mmHg",104.90560219177,"90","120"
"01-026","Screening","0","2015-02-19","1","Vital Signs","Temperature","°C",36.4853245395617,"36.6","37"
"01-026","Visit 1","1","2015-04-09","50","Vital Signs","Diastolic Blood Pressure","mmHg",,"60","80"
"01-026","Visit 1","1","2015-04-09","50","Vital Signs","Heart Rate","beats/minute",56.6788772948486,"50","80"
"01-026","Visit 1","1","2015-04-09","50","Vital Signs","Respiratory Rate","breaths/minute",20.9241524764192,"16","20"
"01-026","Visit 1","1","2015-04-09","50","Vital Signs","Systolic Blood Pressure","mmHg",93.7935874479927,"90","120"
"01-026","Visit 1","1","2015-04-09","50","Vital Signs","Temperature","°C",36.8062459435357,"36.6","37"
"01-026","Visit 2","2","2015-06-10","112","Vital Signs","Diastolic Blood Pressure","mmHg",70.1799361759144,"60","80"
"01-026","Visit 2","2","2015-06-10","112","Vital Signs","Heart Rate","beats/minute",52.7521073102317,"50","80"
"01-026","Visit 2","2","2015-06-10","112","Vital Signs","Respiratory Rate","breaths/minute",17.3249332378392,"16","20"
"01-026","Visit 2","2","2015-06-10","112","Vital Signs","Systolic Blood Pressure","mmHg",107.84574357055,"90","120"
"01-026","Visit 2","2","2015-06-10","112","Vital Signs","Temperature","°C",36.8148661976426,"36.6","37"
"01-026","Visit 4","4","2015-09-27","221","Vital Signs","Diastolic Blood Pressure","mmHg",74.315086809284,"60","80"
"01-026","Visit 4","4","2015-09-27","221","Vital Signs","Heart Rate","beats/minute",74.5019825042593,"50","80"
"01-026","Visit 4","4","2015-09-27","221","Vital Signs","Respiratory Rate","breaths/minute",14.8587640061044,"16","20"
"01-026","Visit 4","4","2015-09-27","221","Vital Signs","Systolic Blood Pressure","mmHg",102.442924808414,"90","120"
"01-026","Visit 4","4","2015-09-27","221","Vital Signs","Temperature","°C",36.884462171088,"36.6","37"
"01-026","Visit 5","5","2015-11-20","275","Vital Signs","Diastolic Blood Pressure","mmHg",57.4671147171301,"60","80"
"01-026","Visit 5","5","2015-11-20","275","Vital Signs","Heart Rate","beats/minute",80.5332502290207,"50","80"
"01-026","Visit 5","5","2015-11-20","275","Vital Signs","Respiratory Rate","breaths/minute",24.6981071727468,"16","20"
"01-026","Visit 5","5","2015-11-20","275","Vital Signs","Systolic Blood Pressure","mmHg",,"90","120"
"01-026","Visit 5","5","2015-11-20","275","Vital Signs","Temperature","°C",36.9132640476067,"36.6","37"
"01-026","Visit 6","6","2016-01-14","330","Vital Signs","Diastolic Blood Pressure","mmHg",69.5820817782363,"60","80"
"01-026","Visit 6","6","2016-01-14","330","Vital Signs","Heart Rate","beats/minute",60.45419650004,"50","80"
"01-026","Visit 6","6","2016-01-14","330","Vital Signs","Respiratory Rate","breaths/minute",17.8053162580679,"16","20"
"01-026","Visit 6","6","2016-01-14","330","Vital Signs","Systolic Blood Pressure","mmHg",113.671582464601,"90","120"
"01-026","Visit 6","6","2016-01-14","330","Vital Signs","Temperature","°C",,"36.6","37"
"01-026","End of Study","7","2016-02-25","372","Vital Signs","Diastolic Blood Pressure","mmHg",46.3607436824282,"60","80"
"01-026","End of Study","7","2016-02-25","372","Vital Signs","Heart Rate","beats/minute",74.8723032488573,"50","80"
"01-026","End of Study","7","2016-02-25","372","Vital Signs","Respiratory Rate","breaths/minute",15.2289636967107,"16","20"
"01-026","End of Study","7","2016-02-25","372","Vital Signs","Systolic Blood Pressure","mmHg",,"90","120"
"01-026","End of Study","7","2016-02-25","372","Vital Signs","Temperature","°C",37.2579096480619,"36.6","37"
"01-027","Screening","0","2015-06-01","1","Vital Signs","Diastolic Blood Pressure","mmHg",61.5534811082692,"60","80"
"01-027","Screening","0","2015-06-01","1","Vital Signs","Heart Rate","beats/minute",52.9513458028971,"50","80"
"01-027","Screening","0","2015-06-01","1","Vital Signs","Respiratory Rate","breaths/minute",16.4518783111618,"16","20"
"01-027","Screening","0","2015-06-01","1","Vital Signs","Systolic Blood Pressure","mmHg",94.0702452256999,"90","120"
"01-027","Screening","0","2015-06-01","1","Vital Signs","Temperature","°C",36.7922097984333,"36.6","37"
"01-027","Visit 1","1","2015-07-26","56","Vital Signs","Diastolic Blood Pressure","mmHg",,"60","80"
"01-027","Visit 1","1","2015-07-26","56","Vital Signs","Heart Rate","beats/minute",50.63656131964,"50","80"
"01-027","Visit 1","1","2015-07-26","56","Vital Signs","Respiratory Rate","breaths/minute",19.0828000710589,"16","20"
"01-027","Visit 1","1","2015-07-26","56","Vital Signs","Systolic Blood Pressure","mmHg",102.250013462954,"90","120"
"01-027","Visit 1","1","2015-07-26","56","Vital Signs","Temperature","°C",36.953555784539,"36.6","37"
"01-027","Visit 2","2","2015-09-15","107","Vital Signs","Diastolic Blood Pressure","mmHg",54.883621836356,"60","80"
"01-027","Visit 2","2","2015-09-15","107","Vital Signs","Heart Rate","beats/minute",64.6226694470663,"50","80"
"01-027","Visit 2","2","2015-09-15","107","Vital Signs","Respiratory Rate","breaths/minute",14.9892246791111,"16","20"
"01-027","Visit 2","2","2015-09-15","107","Vital Signs","Systolic Blood Pressure","mmHg",131.237316625588,"90","120"
"01-027","Visit 2","2","2015-09-15","107","Vital Signs","Temperature","°C",36.6895562835773,"36.6","37"
"01-028","Screening","0","2015-11-12","1","Vital Signs","Diastolic Blood Pressure","mmHg",75.309441645474,"60","80"
"01-028","Screening","0","2015-11-12","1","Vital Signs","Heart Rate","beats/minute",61.4302226502851,"50","80"
"01-028","Screening","0","2015-11-12","1","Vital Signs","Respiratory Rate","breaths/minute",,"16","20"
"01-028","Screening","0","2015-11-12","1","Vital Signs","Systolic Blood Pressure","mmHg",81.8110988325125,"90","120"
"01-028","Screening","0","2015-11-12","1","Vital Signs","Temperature","°C",36.9111144302532,"36.6","37"
"01-028","Visit 1","1","2016-01-02","52","Vital Signs","Diastolic Blood Pressure","mmHg",,"60","80"
"01-028","Visit 1","1","2016-01-02","52","Vital Signs","Heart Rate","beats/minute",45.442643954095,"50","80"
"01-028","Visit 1","1","2016-01-02","52","Vital Signs","Respiratory Rate","breaths/minute",16.5015086151909,"16","20"
"01-028","Visit 1","1","2016-01-02","52","Vital Signs","Systolic Blood Pressure","mmHg",120.74158344674,"90","120"
"01-028","Visit 1","1","2016-01-02","52","Vital Signs","Temperature","°C",36.6655111551075,"36.6","37"
"01-028","Unscheduled 1.1","1.1","2016-01-10","60","Vital Signs","Diastolic Blood Pressure","mmHg",52.5873230681592,"60","80"
"01-028","Unscheduled 1.1","1.1","2016-01-10","60","Vital Signs","Heart Rate","beats/minute",59.7905496859549,"50","80"
"01-028","Unscheduled 1.1","1.1","2016-01-10","60","Vital Signs","Respiratory Rate","breaths/minute",19.7033020218165,"16","20"
"01-028","Unscheduled 1.1","1.1","2016-01-10","60","Vital Signs","Systolic Blood Pressure","mmHg",94.6002981208123,"90","120"
"01-028","Unscheduled 1.1","1.1","2016-01-10","60","Vital Signs","Temperature","°C",36.6135734152936,"36.6","37"
"01-028","Visit 2","2","2016-03-06","116","Vital Signs","Diastolic Blood Pressure","mmHg",58.6700916717992,"60","80"
"01-028","Visit 2","2","2016-03-06","116","Vital Signs","Heart Rate","beats/minute",67.0406106335741,"50","80"
"01-028","Visit 2","2","2016-03-06","116","Vital Signs","Respiratory Rate","breaths/minute",13.961475673778,"16","20"
"01-028","Visit 2","2","2016-03-06","116","Vital Signs","Systolic Blood Pressure","mmHg",,"90","120"
"01-028","Visit 2","2","2016-03-06","116","Vital Signs","Temperature","°C",36.8862247759809,"36.6","37"
"01-028","Visit 3","3","2016-04-25","166","Vital Signs","Diastolic Blood Pressure","mmHg",84.876994567807,"60","80"
"01-028","Visit 3","3","2016-04-25","166","Vital Signs","Heart Rate","beats/minute",61.872537888894,"50","80"
"01-028","Visit 3","3","2016-04-25","166","Vital Signs","Respiratory Rate","breaths/minute",,"16","20"
"01-028","Visit 3","3","2016-04-25","166","Vital Signs","Systolic Blood Pressure","mmHg",132.286617481733,"90","120"
"01-028","Visit 3","3","2016-04-25","166","Vital Signs","Temperature","°C",36.6150862203632,"36.6","37"
"01-028","Visit 4","4","2016-06-21","223","Vital Signs","Diastolic Blood Pressure","mmHg",67.7400049484525,"60","80"
"01-028","Visit 4","4","2016-06-21","223","Vital Signs","Heart Rate","beats/minute",54.6497581156525,"50","80"
"01-028","Visit 4","4","2016-06-21","223","Vital Signs","Respiratory Rate","breaths/minute",14.7066681453849,"16","20"
"01-028","Visit 4","4","2016-06-21","223","Vital Signs","Systolic Blood Pressure","mmHg",105.868904238966,"90","120"
"01-028","Visit 4","4","2016-06-21","223","Vital Signs","Temperature","°C",36.81791421366,"36.6","37"
"01-028","Visit 5","5","2016-08-19","282","Vital Signs","Diastolic Blood Pressure","mmHg",67.2111889967312,"60","80"
"01-028","Visit 5","5","2016-08-19","282","Vital Signs","Heart Rate","beats/minute",66.3653162912065,"50","80"
"01-028","Visit 5","5","2016-08-19","282","Vital Signs","Respiratory Rate","breaths/minute",21.7782894389796,"16","20"
"01-028","Visit 5","5","2016-08-19","282","Vital Signs","Systolic Blood Pressure","mmHg",,"90","120"
"01-028","Visit 5","5","2016-08-19","282","Vital Signs","Temperature","°C",36.8536310268712,"36.6","37"
"01-028","Visit 6","6","2016-10-09","333","Vital Signs","Diastolic Blood Pressure","mmHg",62.9103914929833,"60","80"
"01-028","Visit 6","6","2016-10-09","333","Vital Signs","Heart Rate","beats/minute",51.2381093102753,"50","80"
"01-028","Visit 6","6","2016-10-09","333","Vital Signs","Respiratory Rate","breaths/minute",17.8126932685565,"16","20"
"01-028","Visit 6","6","2016-10-09","333","Vital Signs","Systolic Blood Pressure","mmHg",107.647534738304,"90","120"
"01-028","Visit 6","6","2016-10-09","333","Vital Signs","Temperature","°C",36.9998557625085,"36.6","37"
"01-028","Unscheduled 6.1","6.1","2016-10-17","341","Vital Signs","Diastolic Blood Pressure","mmHg",58.4955162256667,"60","80"
"01-028","Unscheduled 6.1","6.1","2016-10-17","341","Vital Signs","Heart Rate","beats/minute",55.6558854788388,"50","80"
"01-028","Unscheduled 6.1","6.1","2016-10-17","341","Vital Signs","Respiratory Rate","breaths/minute",20.1211990071559,"16","20"
"01-028","Unscheduled 6.1","6.1","2016-10-17","341","Vital Signs","Systolic Blood Pressure","mmHg",152.643283880638,"90","120"
"01-028","Unscheduled 6.1","6.1","2016-10-17","341","Vital Signs","Temperature","°C",36.7782294079995,"36.6","37"
"01-028","End of Study","7","2016-11-04","359","Vital Signs","Diastolic Blood Pressure","mmHg",55.919752461211,"60","80"
"01-028","End of Study","7","2016-11-04","359","Vital Signs","Heart Rate","beats/minute",74.7545868144299,"50","80"
"01-028","End of Study","7","2016-11-04","359","Vital Signs","Respiratory Rate","breaths/minute",17.3268606134367,"16","20"
"01-028","End of Study","7","2016-11-04","359","Vital Signs","Systolic Blood Pressure","mmHg",,"90","120"
"01-028","End of Study","7","2016-11-04","359","Vital Signs","Temperature","°C",36.691063088278,"36.6","37"
"01-029","Screening","0","2015-06-10","1","Vital Signs","Diastolic Blood Pressure","mmHg",56.3686521932303,"60","80"
"01-029","Screening","0","2015-06-10","1","Vital Signs","Heart Rate","beats/minute",66.9763083045368,"50","80"
"01-029","Screening","0","2015-06-10","1","Vital Signs","Respiratory Rate","breaths/minute",19.2641283479326,"16","20"
"01-029","Screening","0","2015-06-10","1","Vital Signs","Systolic Blood Pressure","mmHg",125.755109553091,"90","120"
"01-029","Screening","0","2015-06-10","1","Vital Signs","Temperature","°C",36.8465493084881,"36.6","37"
"01-029","Visit 1","1","2015-08-06","58","Vital Signs","Diastolic Blood Pressure","mmHg",,"60","80"
"01-029","Visit 1","1","2015-08-06","58","Vital Signs","Heart Rate","beats/minute",71.7044485867031,"50","80"
"01-029","Visit 1","1","2015-08-06","58","Vital Signs","Respiratory Rate","breaths/minute",20.3781597973073,"16","20"
"01-029","Visit 1","1","2015-08-06","58","Vital Signs","Systolic Blood Pressure","mmHg",106.824596840302,"90","120"
"01-029","Visit 1","1","2015-08-06","58","Vital Signs","Temperature","°C",36.4985332288867,"36.6","37"
"01-029","Unscheduled 1.1","1.1","2015-08-14","66","Vital Signs","Diastolic Blood Pressure","mmHg",79.4634884174326,"60","80"
"01-029","Unscheduled 1.1","1.1","2015-08-14","66","Vital Signs","Heart Rate","beats/minute",63.5983271509963,"50","80"
"01-029","Unscheduled 1.1","1.1","2015-08-14","66","Vital Signs","Respiratory Rate","breaths/minute",17.2221585559611,"16","20"
"01-029","Unscheduled 1.1","1.1","2015-08-14","66","Vital Signs","Systolic Blood Pressure","mmHg",,"90","120"
"01-029","Unscheduled 1.1","1.1","2015-08-14","66","Vital Signs","Temperature","°C",37.0783082592958,"36.6","37"
"01-029","Visit 3","3","2015-11-18","162","Vital Signs","Diastolic Blood Pressure","mmHg",68.591052550218,"60","80"
"01-029","Visit 3","3","2015-11-18","162","Vital Signs","Heart Rate","beats/minute",65.3495227307547,"50","80"
"01-029","Visit 3","3","2015-11-18","162","Vital Signs","Respiratory Rate","breaths/minute",,"16","20"
"01-029","Visit 3","3","2015-11-18","162","Vital Signs","Systolic Blood Pressure","mmHg",112.18889202919,"90","120"
"01-029","Visit 3","3","2015-11-18","162","Vital Signs","Temperature","°C",36.5328706973126,"36.6","37"
"01-029","Visit 4","4","2016-01-15","220","Vital Signs","Diastolic Blood Pressure","mmHg",79.637391034403,"60","80"
"01-029","Visit 4","4","2016-01-15","220","Vital Signs","Heart Rate","beats/minute",67.1662487075905,"50","80"
"01-029","Visit 4","4","2016-01-15","220","Vital Signs","Respiratory Rate","breaths/minute",16.0069989879414,"16","20"
"01-029","Visit 4","4","2016-01-15","220","Vital Signs","Systolic Blood Pressure","mmHg",115.392174285776,"90","120"
"01-029","Visit 4","4","2016-01-15","220","Vital Signs","Temperature","°C",36.9884950863601,"36.6","37"
"02-002","Screening","0","2015-03-16","1","Vital Signs","Diastolic Blood Pressure","mmHg",52.7145843864869,"60","80"
"02-002","Screening","0","2015-03-16","1","Vital Signs","Heart Rate","beats/minute",48.778572146004,"50","80"
"02-002","Screening","0","2015-03-16","1","Vital Signs","Respiratory Rate","breaths/minute",19.1869704331853,"16","20"
"02-002","Screening","0","2015-03-16","1","Vital Signs","Systolic Blood Pressure","mmHg",81.3867713844342,"90","120"
"02-002","Screening","0","2015-03-16","1","Vital Signs","Temperature","°C",36.672913587529,"36.6","37"
"02-002","Visit 1","1","2015-05-16","62","Vital Signs","Diastolic Blood Pressure","mmHg",,"60","80"
"02-002","Visit 1","1","2015-05-16","62","Vital Signs","Heart Rate","beats/minute",40.710265779823,"50","80"
"02-002","Visit 1","1","2015-05-16","62","Vital Signs","Respiratory Rate","breaths/minute",19.3916837190578,"16","20"
"02-002","Visit 1","1","2015-05-16","62","Vital Signs","Systolic Blood Pressure","mmHg",108.351299376767,"90","120"
"02-002","Visit 1","1","2015-05-16","62","Vital Signs","Temperature","°C",36.8053071788532,"36.6","37"
"02-003","Screening","0","2015-04-27","1","Vital Signs","Diastolic Blood Pressure","mmHg",70.162195073133,"60","80"
"02-003","Screening","0","2015-04-27","1","Vital Signs","Heart Rate","beats/minute",67.6973526378778,"50","80"
"02-003","Screening","0","2015-04-27","1","Vital Signs","Respiratory Rate","breaths/minute",19.3253616877161,"16","20"
"02-003","Screening","0","2015-04-27","1","Vital Signs","Systolic Blood Pressure","mmHg",91.0704115193029,"90","120"
"02-003","Screening","0","2015-04-27","1","Vital Signs","Temperature","°C",36.767252515178,"36.6","37"
"02-003","Unscheduled 0.1","0.1","2015-05-05","9","Vital Signs","Diastolic Blood Pressure","mmHg",69.5469718522452,"60","80"
"02-003","Unscheduled 0.1","0.1","2015-05-05","9","Vital Signs","Heart Rate","beats/minute",51.2358584502542,"50","80"
"02-003","Unscheduled 0.1","0.1","2015-05-05","9","Vital Signs","Respiratory Rate","breaths/minute",20.8226639567358,"16","20"
"02-003","Unscheduled 0.1","0.1","2015-05-05","9","Vital Signs","Systolic Blood Pressure","mmHg",97.4798195827685,"90","120"
"02-003","Unscheduled 0.1","0.1","2015-05-05","9","Vital Signs","Temperature","°C",36.9890941372204,"36.6","37"
"02-003","Visit 1","1","2015-06-26","61","Vital Signs","Diastolic Blood Pressure","mmHg",,"60","80"
"02-003","Visit 1","1","2015-06-26","61","Vital Signs","Heart Rate","beats/minute",72.2370249686553,"50","80"
"02-003","Visit 1","1","2015-06-26","61","Vital Signs","Respiratory Rate","breaths/minute",16.7237716393068,"16","20"
"02-003","Visit 1","1","2015-06-26","61","Vital Signs","Systolic Blood Pressure","mmHg",86.990486742779,"90","120"
"02-003","Visit 1","1","2015-06-26","61","Vital Signs","Temperature","°C",,"36.6","37"
"02-003","Visit 2","2","2015-08-16","112","Vital Signs","Diastolic Blood Pressure","mmHg",91.1088917649371,"60","80"
"02-003","Visit 2","2","2015-08-16","112","Vital Signs","Heart Rate","beats/minute",56.1489215375183,"50","80"
"02-003","Visit 2","2","2015-08-16","112","Vital Signs","Respiratory Rate","breaths/minute",20.4958321602282,"16","20"
"02-003","Visit 2","2","2015-08-16","112","Vital Signs","Systolic Blood Pressure","mmHg",87.5658130803602,"90","120"
"02-003","Visit 2","2","2015-08-16","112","Vital Signs","Temperature","°C",36.8133559827351,"36.6","37"
"02-003","Visit 3","3","2015-10-04","161","Vital Signs","Diastolic Blood Pressure","mmHg",66.9690530586983,"60","80"
"02-003","Visit 3","3","2015-10-04","161","Vital Signs","Heart Rate","beats/minute",54.8564783007941,"50","80"
"02-003","Visit 3","3","2015-10-04","161","Vital Signs","Respiratory Rate","breaths/minute",,"16","20"
"02-003","Visit 3","3","2015-10-04","161","Vital Signs","Systolic Blood Pressure","mmHg",95.1156215362388,"90","120"
"02-003","Visit 3","3","2015-10-04","161","Vital Signs","Temperature","°C",36.9683794070386,"36.6","37"
"02-005","Screening","0","2015-12-13","1","Vital Signs","Diastolic Blood Pressure","mmHg",74.0184261736687,"60","80"
"02-005","Screening","0","2015-12-13","1","Vital Signs","Heart Rate","beats/minute",96.5145586308597,"50","80"
"02-005","Screening","0","2015-12-13","1","Vital Signs","Respiratory Rate","breaths/minute",13.8095493560878,"16","20"
"02-005","Screening","0","2015-12-13","1","Vital Signs","Systolic Blood Pressure","mmHg",120.356405699415,"90","120"
"02-005","Screening","0","2015-12-13","1","Vital Signs","Temperature","°C",36.7459669792795,"36.6","37"
"02-005","Visit 1","1","2016-02-10","60","Vital Signs","Diastolic Blood Pressure","mmHg",,"60","80"
"02-005","Visit 1","1","2016-02-10","60","Vital Signs","Heart Rate","beats/minute",63.9658790921555,"50","80"
"02-005","Visit 1","1","2016-02-10","60","Vital Signs","Respiratory Rate","breaths/minute",17.2826411656573,"16","20"
"02-005","Visit 1","1","2016-02-10","60","Vital Signs","Systolic Blood Pressure","mmHg",102.632047666576,"90","120"
"02-005","Visit 1","1","2016-02-10","60","Vital Signs","Temperature","°C",36.4119678175809,"36.6","37"
"02-005","Visit 2","2","2016-04-06","116","Vital Signs","Diastolic Blood Pressure","mmHg",74.2911651196996,"60","80"
"02-005","Visit 2","2","2016-04-06","116","Vital Signs","Heart Rate","beats/minute",69.7929488780343,"50","80"
"02-005","Visit 2","2","2016-04-06","116","Vital Signs","Respiratory Rate","breaths/minute",18.0377782853621,"16","20"
"02-005","Visit 2","2","2016-04-06","116","Vital Signs","Systolic Blood Pressure","mmHg",117.186094421297,"90","120"
"02-005","Visit 2","2","2016-04-06","116","Vital Signs","Temperature","°C",36.68698945629,"36.6","37"
"02-005","Visit 3","3","2016-05-21","161","Vital Signs","Diastolic Blood Pressure","mmHg",79.3367837041014,"60","80"
"02-005","Visit 3","3","2016-05-21","161","Vital Signs","Heart Rate","beats/minute",38.418355332976,"50","80"
"02-005","Visit 3","3","2016-05-21","161","Vital Signs","Respiratory Rate","breaths/minute",,"16","20"
"02-005","Visit 3","3","2016-05-21","161","Vital Signs","Systolic Blood Pressure","mmHg",80.9478223063274,"90","120"
"02-005","Visit 3","3","2016-05-21","161","Vital Signs","Temperature","°C",36.69289658519,"36.6","37"
"02-005","Visit 4","4","2016-07-16","217","Vital Signs","Diastolic Blood Pressure","mmHg",68.8308943559446,"60","80"
"02-005","Visit 4","4","2016-07-16","217","Vital Signs","Heart Rate","beats/minute",42.6244258517454,"50","80"
"02-005","Visit 4","4","2016-07-16","217","Vital Signs","Respiratory Rate","breaths/minute",18.0234557218412,"16","20"
"02-005","Visit 4","4","2016-07-16","217","Vital Signs","Systolic Blood Pressure","mmHg",99.4732455558943,"90","120"
"02-005","Visit 4","4","2016-07-16","217","Vital Signs","Temperature","°C",36.6379142796498,"36.6","37"
"02-005","Early Termination","6.9","2016-07-21","222","Vital Signs","Diastolic Blood Pressure","mmHg",79.3894945578406,"60","80"
"02-005","Early Termination","6.9","2016-07-21","222","Vital Signs","Heart Rate","beats/minute",68.9436817141132,"50","80"
"02-005","Early Termination","6.9","2016-07-21","222","Vital Signs","Respiratory Rate","breaths/minute",18.348624938857,"16","20"
"02-005","Early Termination","6.9","2016-07-21","222","Vital Signs","Systolic Blood Pressure","mmHg",102.090365067524,"90","120"
"02-005","Early Termination","6.9","2016-07-21","222","Vital Signs","Temperature","°C",37.0628385241771,"36.6","37"
"02-006","Screening","0","2015-06-03","1","Vital Signs","Diastolic Blood Pressure","mmHg",65.0273871641261,"60","80"
"02-006","Screening","0","2015-06-03","1","Vital Signs","Heart Rate","beats/minute",76.6154684640304,"50","80"
"02-006","Screening","0","2015-06-03","1","Vital Signs","Respiratory Rate","breaths/minute",19.2917991450057,"16","20"
"02-006","Screening","0","2015-06-03","1","Vital Signs","Systolic Blood Pressure","mmHg",114.752845510482,"90","120"
"02-006","Screening","0","2015-06-03","1","Vital Signs","Temperature","°C",36.5658284397328,"36.6","37"
"02-006","Visit 1","1","2015-08-01","60","Vital Signs","Diastolic Blood Pressure","mmHg",,"60","80"
"02-006","Visit 1","1","2015-08-01","60","Vital Signs","Heart Rate","beats/minute",71.9134913431078,"50","80"
"02-006","Visit 1","1","2015-08-01","60","Vital Signs","Respiratory Rate","breaths/minute",20.8965389875298,"16","20"
"02-006","Visit 1","1","2015-08-01","60","Vital Signs","Systolic Blood Pressure","mmHg",115.372921897582,"90","120"
"02-006","Visit 1","1","2015-08-01","60","Vital Signs","Temperature","°C",36.2068394149742,"36.6","37"
"02-006","Early Termination","6.9","2015-09-18","108","Vital Signs","Diastolic Blood Pressure","mmHg",41.6272201587668,"60","80"
"02-006","Early Termination","6.9","2015-09-18","108","Vital Signs","Heart Rate","beats/minute",49.1952128888546,"50","80"
"02-006","Early Termination","6.9","2015-09-18","108","Vital Signs","Respiratory Rate","breaths/minute",18.3811917355747,"16","20"
"02-006","Early Termination","6.9","2015-09-18","108","Vital Signs","Systolic Blood Pressure","mmHg",93.7850346202447,"90","120"
"02-006","Early Termination","6.9","2015-09-18","108","Vital Signs","Temperature","°C",36.6391810402616,"36.6","37"
"02-008","Screening","0","2015-08-17","1","Vital Signs","Diastolic Blood Pressure","mmHg",76.9126260767737,"60","80"
"02-008","Screening","0","2015-08-17","1","Vital Signs","Heart Rate","beats/minute",63.4699929217289,"50","80"
"02-008","Screening","0","2015-08-17","1","Vital Signs","Respiratory Rate","breaths/minute",20.7881844781423,"16","20"
"02-008","Screening","0","2015-08-17","1","Vital Signs","Systolic Blood Pressure","mmHg",62.9134113208241,"90","120"
"02-008","Screening","0","2015-08-17","1","Vital Signs","Temperature","°C",36.3966252021766,"36.6","37"
"02-008","Visit 1","1","2015-10-12","57","Vital Signs","Diastolic Blood Pressure","mmHg",,"60","80"
"02-008","Visit 1","1","2015-10-12","57","Vital Signs","Heart Rate","beats/minute",63.8035850153572,"50","80"
"02-008","Visit 1","1","2015-10-12","57","Vital Signs","Respiratory Rate","breaths/minute",15.8061967794483,"16","20"
"02-008","Visit 1","1","2015-10-12","57","Vital Signs","Systolic Blood Pressure","mmHg",106.158705266552,"90","120"
"02-008","Visit 1","1","2015-10-12","57","Vital Signs","Temperature","°C",36.9459661039571,"36.6","37"
"02-008","Visit 2","2","2015-12-04","110","Vital Signs","Diastolic Blood Pressure","mmHg",91.8866732570524,"60","80"
"02-008","Visit 2","2","2015-12-04","110","Vital Signs","Heart Rate","beats/minute",59.9426830868482,"50","80"
"02-008","Visit 2","2","2015-12-04","110","Vital Signs","Respiratory Rate","breaths/minute",18.2232973321812,"16","20"
"02-008","Visit 2","2","2015-12-04","110","Vital Signs","Systolic Blood Pressure","mmHg",122.633887974784,"90","120"
"02-008","Visit 2","2","2015-12-04","110","Vital Signs","Temperature","°C",36.7005182452576,"36.6","37"
"02-008","Visit 3","3","2016-02-04","172","Vital Signs","Diastolic Blood Pressure","mmHg",74.5529145949781,"60","80"
"02-008","Visit 3","3","2016-02-04","172","Vital Signs","Heart Rate","beats/minute",67.4888047218403,"50","80"
"02-008","Visit 3","3","2016-02-04","172","Vital Signs","Respiratory Rate","breaths/minute",,"16","20"
"02-008","Visit 3","3","2016-02-04","172","Vital Signs","Systolic Blood Pressure","mmHg",119.204618788288,"90","120"
"02-008","Visit 3","3","2016-02-04","172","Vital Signs","Temperature","°C",36.7426343217876,"36.6","37"
"02-008","Unscheduled 3.1","3.1","2016-02-12","180","Vital Signs","Diastolic Blood Pressure","mmHg",69.3987635358585,"60","80"
"02-008","Unscheduled 3.1","3.1","2016-02-12","180","Vital Signs","Heart Rate","beats/minute",63.0024109932046,"50","80"
"02-008","Unscheduled 3.1","3.1","2016-02-12","180","Vital Signs","Respiratory Rate","breaths/minute",18.2264812295553,"16","20"
"02-008","Unscheduled 3.1","3.1","2016-02-12","180","Vital Signs","Systolic Blood Pressure","mmHg",94.3010949350451,"90","120"
"02-008","Unscheduled 3.1","3.1","2016-02-12","180","Vital Signs","Temperature","°C",,"36.6","37"
"02-008","Visit 4","4","2016-04-03","231","Vital Signs","Diastolic Blood Pressure","mmHg",54.0806490828546,"60","80"
"02-008","Visit 4","4","2016-04-03","231","Vital Signs","Heart Rate","beats/minute",102.351578940445,"50","80"
"02-008","Visit 4","4","2016-04-03","231","Vital Signs","Respiratory Rate","breaths/minute",18.170257812522,"16","20"
"02-008","Visit 4","4","2016-04-03","231","Vital Signs","Systolic Blood Pressure","mmHg",92.5290013781251,"90","120"
"02-008","Visit 4","4","2016-04-03","231","Vital Signs","Temperature","°C",36.4795445523001,"36.6","37"
"02-008","Visit 5","5","2016-05-15","273","Vital Signs","Diastolic Blood Pressure","mmHg",50.7606183651892,"60","80"
"02-008","Visit 5","5","2016-05-15","273","Vital Signs","Heart Rate","beats/minute",26.2422099904444,"50","80"
"02-008","Visit 5","5","2016-05-15","273","Vital Signs","Respiratory Rate","breaths/minute",15.3844961376544,"16","20"
"02-008","Visit 5","5","2016-05-15","273","Vital Signs","Systolic Blood Pressure","mmHg",,"90","120"
"02-008","Visit 5","5","2016-05-15","273","Vital Signs","Temperature","°C",,"36.6","37"
"02-008","Visit 6","6","2016-07-11","330","Vital Signs","Diastolic Blood Pressure","mmHg",74.270666148275,"60","80"
"02-008","Visit 6","6","2016-07-11","330","Vital Signs","Heart Rate","beats/minute",56.8604066077378,"50","80"
"02-008","Visit 6","6","2016-07-11","330","Vital Signs","Respiratory Rate","breaths/minute",17.7974473298099,"16","20"
"02-008","Visit 6","6","2016-07-11","330","Vital Signs","Systolic Blood Pressure","mmHg",110.890715007892,"90","120"
"02-008","Visit 6","6","2016-07-11","330","Vital Signs","Temperature","°C",36.8804653814291,"36.6","37"
"02-008","Unscheduled 6.1","6.1","2016-07-19","338","Vital Signs","Diastolic Blood Pressure","mmHg",65.1097096574013,"60","80"
"02-008","Unscheduled 6.1","6.1","2016-07-19","338","Vital Signs","Heart Rate","beats/minute",41.8409805072234,"50","80"
"02-008","Unscheduled 6.1","6.1","2016-07-19","338","Vital Signs","Respiratory Rate","breaths/minute",19.7510850233613,"16","20"
"02-008","Unscheduled 6.1","6.1","2016-07-19","338","Vital Signs","Systolic Blood Pressure","mmHg",132.220543686402,"90","120"
"02-008","Unscheduled 6.1","6.1","2016-07-19","338","Vital Signs","Temperature","°C",36.9985431299197,"36.6","37"
"02-008","End of Study","7","2016-08-14","364","Vital Signs","Diastolic Blood Pressure","mmHg",72.583501504752,"60","80"
"02-008","End of Study","7","2016-08-14","364","Vital Signs","Heart Rate","beats/minute",81.7169341161439,"50","80"
"02-008","End of Study","7","2016-08-14","364","Vital Signs","Respiratory Rate","breaths/minute",19.3069173668757,"16","20"
"02-008","End of Study","7","2016-08-14","364","Vital Signs","Systolic Blood Pressure","mmHg",,"90","120"
"02-008","End of Study","7","2016-08-14","364","Vital Signs","Temperature","°C",36.6365272272872,"36.6","37"
"02-009","Screening","0","2015-12-13","1","Vital Signs","Diastolic Blood Pressure","mmHg",74.4690073269022,"60","80"
"02-009","Screening","0","2015-12-13","1","Vital Signs","Heart Rate","beats/minute",61.0061478483,"50","80"
"02-009","Screening","0","2015-12-13","1","Vital Signs","Respiratory Rate","breaths/minute",22.2271922936784,"16","20"
"02-009","Screening","0","2015-12-13","1","Vital Signs","Systolic Blood Pressure","mmHg",99.4636511561727,"90","120"
"02-009","Screening","0","2015-12-13","1","Vital Signs","Temperature","°C",36.5731934737826,"36.6","37"
"02-009","Visit 1","1","2016-02-04","54","Vital Signs","Diastolic Blood Pressure","mmHg",,"60","80"
"02-009","Visit 1","1","2016-02-04","54","Vital Signs","Heart Rate","beats/minute",103.481801521004,"50","80"
"02-009","Visit 1","1","2016-02-04","54","Vital Signs","Respiratory Rate","breaths/minute",18.9209448218196,"16","20"
"02-009","Visit 1","1","2016-02-04","54","Vital Signs","Systolic Blood Pressure","mmHg",90.3848364333373,"90","120"
"02-009","Visit 1","1","2016-02-04","54","Vital Signs","Temperature","°C",37.0135298360553,"36.6","37"
"02-009","Visit 2","2","2016-03-26","105","Vital Signs","Diastolic Blood Pressure","mmHg",66.770123326536,"60","80"
"02-009","Visit 2","2","2016-03-26","105","Vital Signs","Heart Rate","beats/minute",95.4664442749653,"50","80"
"02-009","Visit 2","2","2016-03-26","105","Vital Signs","Respiratory Rate","breaths/minute",18.7589639224769,"16","20"
"02-009","Visit 2","2","2016-03-26","105","Vital Signs","Systolic Blood Pressure","mmHg",66.9493424592054,"90","120"
"02-009","Visit 2","2","2016-03-26","105","Vital Signs","Temperature","°C",36.6972278830658,"36.6","37"
"02-009","Unscheduled 2.1","2.1","2016-04-03","113","Vital Signs","Diastolic Blood Pressure","mmHg",66.6095175398832,"60","80"
"02-009","Unscheduled 2.1","2.1","2016-04-03","113","Vital Signs","Heart Rate","beats/minute",28.1499213984163,"50","80"
"02-009","Unscheduled 2.1","2.1","2016-04-03","113","Vital Signs","Respiratory Rate","breaths/minute",21.9622912527618,"16","20"
"02-009","Unscheduled 2.1","2.1","2016-04-03","113","Vital Signs","Systolic Blood Pressure","mmHg",104.877872418321,"90","120"
"02-009","Unscheduled 2.1","2.1","2016-04-03","113","Vital Signs","Temperature","°C",36.9264238637118,"36.6","37"
"02-009","Visit 3","3","2016-06-03","174","Vital Signs","Diastolic Blood Pressure","mmHg",66.9780252894091,"60","80"
"02-009","Visit 3","3","2016-06-03","174","Vital Signs","Heart Rate","beats/minute",68.3532348199582,"50","80"
"02-009","Visit 3","3","2016-06-03","174","Vital Signs","Respiratory Rate","breaths/minute",,"16","20"
"02-009","Visit 3","3","2016-06-03","174","Vital Signs","Systolic Blood Pressure","mmHg",88.9202478208037,"90","120"
"02-009","Visit 3","3","2016-06-03","174","Vital Signs","Temperature","°C",36.6865294870385,"36.6","37"
"02-010","Screening","0","2015-07-26","1","Vital Signs","Diastolic Blood Pressure","mmHg",68.9640378381402,"60","80"
"02-010","Screening","0","2015-07-26","1","Vital Signs","Heart Rate","beats/minute",63.2297004542053,"50","80"
"02-010","Screening","0","2015-07-26","1","Vital Signs","Respiratory Rate","breaths/minute",18.8295564406574,"16","20"
"02-010","Screening","0","2015-07-26","1","Vital Signs","Systolic Blood Pressure","mmHg",126.061684851796,"90","120"
"02-010","Screening","0","2015-07-26","1","Vital Signs","Temperature","°C",36.5813913936408,"36.6","37"
"02-010","Unscheduled 0.1","0.1","2015-08-03","9","Vital Signs","Diastolic Blood Pressure","mmHg",68.0810244859391,"60","80"
"02-010","Unscheduled 0.1","0.1","2015-08-03","9","Vital Signs","Heart Rate","beats/minute",61.510408924029,"50","80"
"02-010","Unscheduled 0.1","0.1","2015-08-03","9","Vital Signs","Respiratory Rate","breaths/minute",,"16","20"
"02-010","Unscheduled 0.1","0.1","2015-08-03","9","Vital Signs","Systolic Blood Pressure","mmHg",89.2734808415666,"90","120"
"02-010","Unscheduled 0.1","0.1","2015-08-03","9","Vital Signs","Temperature","°C",36.7035145586772,"36.6","37"
"02-010","Visit 1","1","2015-09-13","50","Vital Signs","Diastolic Blood Pressure","mmHg",,"60","80"
"02-010","Visit 1","1","2015-09-13","50","Vital Signs","Heart Rate","beats/minute",87.4941240400668,"50","80"
"02-010","Visit 1","1","2015-09-13","50","Vital Signs","Respiratory Rate","breaths/minute",19.392863077759,"16","20"
"02-010","Visit 1","1","2015-09-13","50","Vital Signs","Systolic Blood Pressure","mmHg",114.308653568857,"90","120"
"02-010","Visit 1","1","2015-09-13","50","Vital Signs","Temperature","°C",36.6790808112568,"36.6","37"
"02-010","Visit 2","2","2015-11-07","105","Vital Signs","Diastolic Blood Pressure","mmHg",66.1433288333886,"60","80"
"02-010","Visit 2","2","2015-11-07","105","Vital Signs","Heart Rate","beats/minute",,"50","80"
"02-010","Visit 2","2","2015-11-07","105","Vital Signs","Respiratory Rate","breaths/minute",17.8611171425926,"16","20"
"02-010","Visit 2","2","2015-11-07","105","Vital Signs","Systolic Blood Pressure","mmHg",,"90","120"
"02-010","Visit 2","2","2015-11-07","105","Vital Signs","Temperature","°C",36.3910957722068,"36.6","37"
"02-010","Visit 4","4","2016-02-28","218","Vital Signs","Diastolic Blood Pressure","mmHg",74.5108363309825,"60","80"
"02-010","Visit 4","4","2016-02-28","218","Vital Signs","Heart Rate","beats/minute",99.1308650896054,"50","80"
"02-010","Visit 4","4","2016-02-28","218","Vital Signs","Respiratory Rate","breaths/minute",16.282385880738,"16","20"
"02-010","Visit 4","4","2016-02-28","218","Vital Signs","Systolic Blood Pressure","mmHg",109.91509941637,"90","120"
"02-010","Visit 4","4","2016-02-28","218","Vital Signs","Temperature","°C",37.1453340090584,"36.6","37"
"02-010","Visit 5","5","2016-04-28","278","Vital Signs","Diastolic Blood Pressure","mmHg",65.997290705652,"60","80"
"02-010","Visit 5","5","2016-04-28","278","Vital Signs","Heart Rate","beats/minute",71.7637781981268,"50","80"
"02-010","Visit 5","5","2016-04-28","278","Vital Signs","Respiratory Rate","breaths/minute",15.6916295930105,"16","20"
"02-010","Visit 5","5","2016-04-28","278","Vital Signs","Systolic Blood Pressure","mmHg",,"90","120"
"02-010","Visit 5","5","2016-04-28","278","Vital Signs","Temperature","°C",36.7433512414132,"36.6","37"
"02-010","Visit 6","6","2016-06-25","336","Vital Signs","Diastolic Blood Pressure","mmHg",79.5717898559199,"60","80"
"02-010","Visit 6","6","2016-06-25","336","Vital Signs","Heart Rate","beats/minute",71.4461669973408,"50","80"
"02-010","Visit 6","6","2016-06-25","336","Vital Signs","Respiratory Rate","breaths/minute",21.2142773494145,"16","20"
"02-010","Visit 6","6","2016-06-25","336","Vital Signs","Systolic Blood Pressure","mmHg",99.7574773570415,"90","120"
"02-010","Visit 6","6","2016-06-25","336","Vital Signs","Temperature","°C",36.5593030864636,"36.6","37"
"02-010","End of Study","7","2016-07-26","367","Vital Signs","Diastolic Blood Pressure","mmHg",49.9709874549288,"60","80"
"02-010","End of Study","7","2016-07-26","367","Vital Signs","Heart Rate","beats/minute",60.6545999995722,"50","80"
"02-010","End of Study","7","2016-07-26","367","Vital Signs","Respiratory Rate","breaths/minute",17.8535995244397,"16","20"
"02-010","End of Study","7","2016-07-26","367","Vital Signs","Systolic Blood Pressure","mmHg",,"90","120"
"02-010","End of Study","7","2016-07-26","367","Vital Signs","Temperature","°C",36.6137402244968,"36.6","37"
"02-012","Screening","0","2015-09-30","1","Vital Signs","Diastolic Blood Pressure","mmHg",65.8171675820428,"60","80"
"02-012","Screening","0","2015-09-30","1","Vital Signs","Heart Rate","beats/minute",54.4192918066346,"50","80"
"02-012","Screening","0","2015-09-30","1","Vital Signs","Respiratory Rate","breaths/minute",17.2512350994575,"16","20"
"02-012","Screening","0","2015-09-30","1","Vital Signs","Systolic Blood Pressure","mmHg",108.251464638781,"90","120"
"02-012","Screening","0","2015-09-30","1","Vital Signs","Temperature","°C",36.9385465494226,"36.6","37"
"02-012","Unscheduled 0.1","0.1","2015-10-08","9","Vital Signs","Diastolic Blood Pressure","mmHg",,"60","80"
"02-012","Unscheduled 0.1","0.1","2015-10-08","9","Vital Signs","Heart Rate","beats/minute",64.6693151314451,"50","80"
"02-012","Unscheduled 0.1","0.1","2015-10-08","9","Vital Signs","Respiratory Rate","breaths/minute",14.5084600775651,"16","20"
"02-012","Unscheduled 0.1","0.1","2015-10-08","9","Vital Signs","Systolic Blood Pressure","mmHg",82.7853647710836,"90","120"
"02-012","Unscheduled 0.1","0.1","2015-10-08","9","Vital Signs","Temperature","°C",36.9611194378019,"36.6","37"
"02-012","Visit 1","1","2015-11-26","58","Vital Signs","Diastolic Blood Pressure","mmHg",,"60","80"
"02-012","Visit 1","1","2015-11-26","58","Vital Signs","Heart Rate","beats/minute",76.4928654620465,"50","80"
"02-012","Visit 1","1","2015-11-26","58","Vital Signs","Respiratory Rate","breaths/minute",18.5580913204888,"16","20"
"02-012","Visit 1","1","2015-11-26","58","Vital Signs","Systolic Blood Pressure","mmHg",106.874113067465,"90","120"
"02-012","Visit 1","1","2015-11-26","58","Vital Signs","Temperature","°C",36.8146860852499,"36.6","37"
"02-012","Visit 2","2","2016-01-12","105","Vital Signs","Diastolic Blood Pressure","mmHg",60.1872653192645,"60","80"
"02-012","Visit 2","2","2016-01-12","105","Vital Signs","Heart Rate","beats/minute",70.0980694398165,"50","80"
"02-012","Visit 2","2","2016-01-12","105","Vital Signs","Respiratory Rate","breaths/minute",16.6683801569925,"16","20"
"02-012","Visit 2","2","2016-01-12","105","Vital Signs","Systolic Blood Pressure","mmHg",107.378166549928,"90","120"
"02-012","Visit 2","2","2016-01-12","105","Vital Signs","Temperature","°C",36.852269700961,"36.6","37"
"02-012","Visit 3","3","2016-03-09","162","Vital Signs","Diastolic Blood Pressure","mmHg",61.3682096140391,"60","80"
"02-012","Visit 3","3","2016-03-09","162","Vital Signs","Heart Rate","beats/minute",81.6368732166458,"50","80"
"02-012","Visit 3","3","2016-03-09","162","Vital Signs","Respiratory Rate","breaths/minute",,"16","20"
"02-012","Visit 3","3","2016-03-09","162","Vital Signs","Systolic Blood Pressure","mmHg",81.8754470163172,"90","120"
"02-012","Visit 3","3","2016-03-09","162","Vital Signs","Temperature","°C",36.58288603998,"36.6","37"
"02-012","Visit 4","4","2016-05-06","220","Vital Signs","Diastolic Blood Pressure","mmHg",77.2372984482254,"60","80"
"02-012","Visit 4","4","2016-05-06","220","Vital Signs","Heart Rate","beats/minute",54.2773194382837,"50","80"
"02-012","Visit 4","4","2016-05-06","220","Vital Signs","Respiratory Rate","breaths/minute",18.4597570222858,"16","20"
"02-012","Visit 4","4","2016-05-06","220","Vital Signs","Systolic Blood Pressure","mmHg",80.7287468564647,"90","120"
"02-012","Visit 4","4","2016-05-06","220","Vital Signs","Temperature","°C",36.9715580287273,"36.6","37"
"02-012","Unscheduled 4.1","4.1","2016-05-14","228","Vital Signs","Diastolic Blood Pressure","mmHg",80.1025967085207,"60","80"
"02-012","Unscheduled 4.1","4.1","2016-05-14","228","Vital Signs","Heart Rate","beats/minute",51.499650535986,"50","80"
"02-012","Unscheduled 4.1","4.1","2016-05-14","228","Vital Signs","Respiratory Rate","breaths/minute",19.7854249259855,"16","20"
"02-012","Unscheduled 4.1","4.1","2016-05-14","228","Vital Signs","Systolic Blood Pressure","mmHg",104.328973081242,"90","120"
"02-012","Unscheduled 4.1","4.1","2016-05-14","228","Vital Signs","Temperature","°C",36.9328744693738,"36.6","37"
"02-013","Screening","0","2015-12-29","1","Vital Signs","Diastolic Blood Pressure","mmHg",66.7600733008882,"60","80"
"02-013","Screening","0","2015-12-29","1","Vital Signs","Heart Rate","beats/minute",82.2623682646867,"50","80"
"02-013","Screening","0","2015-12-29","1","Vital Signs","Respiratory Rate","breaths/minute",16.5396868132788,"16","20"
"02-013","Screening","0","2015-12-29","1","Vital Signs","Systolic Blood Pressure","mmHg",105.615426847754,"90","120"
"02-013","Screening","0","2015-12-29","1","Vital Signs","Temperature","°C",37.0527953635474,"36.6","37"
"02-013","Visit 1","1","2016-02-24","58","Vital Signs","Diastolic Blood Pressure","mmHg",,"60","80"
"02-013","Visit 1","1","2016-02-24","58","Vital Signs","Heart Rate","beats/minute",83.5222360503347,"50","80"
"02-013","Visit 1","1","2016-02-24","58","Vital Signs","Respiratory Rate","breaths/minute",15.8549111013581,"16","20"
"02-013","Visit 1","1","2016-02-24","58","Vital Signs","Systolic Blood Pressure","mmHg",112.415764975157,"90","120"
"02-013","Visit 1","1","2016-02-24","58","Vital Signs","Temperature","°C",36.4726895677546,"36.6","37"
"02-013","Visit 3","3","2016-06-14","169","Vital Signs","Diastolic Blood Pressure","mmHg",68.7607779474587,"60","80"
"02-013","Visit 3","3","2016-06-14","169","Vital Signs","Heart Rate","beats/minute",67.7172564271219,"50","80"
"02-013","Visit 3","3","2016-06-14","169","Vital Signs","Respiratory Rate","breaths/minute",,"16","20"
"02-013","Visit 3","3","2016-06-14","169","Vital Signs","Systolic Blood Pressure","mmHg",107.504987632098,"90","120"
"02-013","Visit 3","3","2016-06-14","169","Vital Signs","Temperature","°C",36.6968824191007,"36.6","37"
"02-013","Visit 4","4","2016-08-11","227","Vital Signs","Diastolic Blood Pressure","mmHg",62.1918909791438,"60","80"
"02-013","Visit 4","4","2016-08-11","227","Vital Signs","Heart Rate","beats/minute",65.3791343974638,"50","80"
"02-013","Visit 4","4","2016-08-11","227","Vital Signs","Respiratory Rate","breaths/minute",17.484300173265,"16","20"
"02-013","Visit 4","4","2016-08-11","227","Vital Signs","Systolic Blood Pressure","mmHg",,"90","120"
"02-013","Visit 4","4","2016-08-11","227","Vital Signs","Temperature","°C",36.750188818427,"36.6","37"
"02-013","Visit 5","5","2016-10-08","285","Vital Signs","Diastolic Blood Pressure","mmHg",78.5808709295165,"60","80"
"02-013","Visit 5","5","2016-10-08","285","Vital Signs","Heart Rate","beats/minute",54.638867038153,"50","80"
"02-013","Visit 5","5","2016-10-08","285","Vital Signs","Respiratory Rate","breaths/minute",19.434343924899,"16","20"
"02-013","Visit 5","5","2016-10-08","285","Vital Signs","Systolic Blood Pressure","mmHg",,"90","120"
"02-013","Visit 5","5","2016-10-08","285","Vital Signs","Temperature","°C",36.8645071614258,"36.6","37"
"02-013","Visit 6","6","2016-11-28","336","Vital Signs","Diastolic Blood Pressure","mmHg",86.4252655165851,"60","80"
"02-013","Visit 6","6","2016-11-28","336","Vital Signs","Heart Rate","beats/minute",55.9459197216202,"50","80"
"02-013","Visit 6","6","2016-11-28","336","Vital Signs","Respiratory Rate","breaths/minute",17.3629101115659,"16","20"
"02-013","Visit 6","6","2016-11-28","336","Vital Signs","Systolic Blood Pressure","mmHg",93.1903746502201,"90","120"
"02-013","Visit 6","6","2016-11-28","336","Vital Signs","Temperature","°C",36.8102004854856,"36.6","37"
"02-013","End of Study","7","2016-12-18","356","Vital Signs","Diastolic Blood Pressure","mmHg",47.8562700331186,"60","80"
"02-013","End of Study","7","2016-12-18","356","Vital Signs","Heart Rate","beats/minute",60.3540823498587,"50","80"
"02-013","End of Study","7","2016-12-18","356","Vital Signs","Respiratory Rate","breaths/minute",22.0480833046183,"16","20"
"02-013","End of Study","7","2016-12-18","356","Vital Signs","Systolic Blood Pressure","mmHg",,"90","120"
"02-013","End of Study","7","2016-12-18","356","Vital Signs","Temperature","°C",36.6148748983804,"36.6","37"
"02-014","Screening","0","2015-04-13","1","Vital Signs","Diastolic Blood Pressure","mmHg",53.4981576736265,"60","80"
"02-014","Screening","0","2015-04-13","1","Vital Signs","Heart Rate","beats/minute",51.0176789332853,"50","80"
"02-014","Screening","0","2015-04-13","1","Vital Signs","Respiratory Rate","breaths/minute",15.3696518189126,"16","20"
"02-014","Screening","0","2015-04-13","1","Vital Signs","Systolic Blood Pressure","mmHg",96.2693485116932,"90","120"
"02-014","Screening","0","2015-04-13","1","Vital Signs","Temperature","°C",36.781552092225,"36.6","37"
"02-014","Visit 1","1","2015-06-05","54","Vital Signs","Diastolic Blood Pressure","mmHg",,"60","80"
"02-014","Visit 1","1","2015-06-05","54","Vital Signs","Heart Rate","beats/minute",58.2224148239492,"50","80"
"02-014","Visit 1","1","2015-06-05","54","Vital Signs","Respiratory Rate","breaths/minute",21.2194815274916,"16","20"
"02-014","Visit 1","1","2015-06-05","54","Vital Signs","Systolic Blood Pressure","mmHg",116.175039528349,"90","120"
"02-014","Visit 1","1","2015-06-05","54","Vital Signs","Temperature","°C",36.7342164612498,"36.6","37"
"02-014","Visit 2","2","2015-08-06","116","Vital Signs","Diastolic Blood Pressure","mmHg",49.5976191231299,"60","80"
"02-014","Visit 2","2","2015-08-06","116","Vital Signs","Heart Rate","beats/minute",69.2256496825274,"50","80"
"02-014","Visit 2","2","2015-08-06","116","Vital Signs","Respiratory Rate","breaths/minute",15.5302973671798,"16","20"
"02-014","Visit 2","2","2015-08-06","116","Vital Signs","Systolic Blood Pressure","mmHg",101.628435829561,"90","120"
"02-014","Visit 2","2","2015-08-06","116","Vital Signs","Temperature","°C",36.9736521738349,"36.6","37"
"02-015","Screening","0","2015-02-24","1","Vital Signs","Diastolic Blood Pressure","mmHg",66.6122864573617,"60","80"
"02-015","Screening","0","2015-02-24","1","Vital Signs","Heart Rate","beats/minute",57.3721634661266,"50","80"
"02-015","Screening","0","2015-02-24","1","Vital Signs","Respiratory Rate","breaths/minute",16.8368753090035,"16","20"
"02-015","Screening","0","2015-02-24","1","Vital Signs","Systolic Blood Pressure","mmHg",136.001733791142,"90","120"
"02-015","Screening","0","2015-02-24","1","Vital Signs","Temperature","°C",36.7430699372698,"36.6","37"
"02-017","Screening","0","2015-04-06","1","Vital Signs","Diastolic Blood Pressure","mmHg",67.7934394762757,"60","80"
"02-017","Screening","0","2015-04-06","1","Vital Signs","Heart Rate","beats/minute",65.9459185854822,"50","80"
"02-017","Screening","0","2015-04-06","1","Vital Signs","Respiratory Rate","breaths/minute",18.1281536676691,"16","20"
"02-017","Screening","0","2015-04-06","1","Vital Signs","Systolic Blood Pressure","mmHg",101.888046843583,"90","120"
"02-017","Screening","0","2015-04-06","1","Vital Signs","Temperature","°C",36.7741222261515,"36.6","37"
"02-017","Visit 1","1","2015-06-03","59","Vital Signs","Diastolic Blood Pressure","mmHg",,"60","80"
"02-017","Visit 1","1","2015-06-03","59","Vital Signs","Heart Rate","beats/minute",69.6167051787581,"50","80"
"02-017","Visit 1","1","2015-06-03","59","Vital Signs","Respiratory Rate","breaths/minute",20.9617994422438,"16","20"
"02-017","Visit 1","1","2015-06-03","59","Vital Signs","Systolic Blood Pressure","mmHg",111.988278695611,"90","120"
"02-017","Visit 1","1","2015-06-03","59","Vital Signs","Temperature","°C",36.7132919160466,"36.6","37"
"02-017","Visit 2","2","2015-07-25","111","Vital Signs","Diastolic Blood Pressure","mmHg",80.2801398765362,"60","80"
"02-017","Visit 2","2","2015-07-25","111","Vital Signs","Heart Rate","beats/minute",53.6194877926408,"50","80"
"02-017","Visit 2","2","2015-07-25","111","Vital Signs","Respiratory Rate","breaths/minute",16.6895675994966,"16","20"
"02-017","Visit 2","2","2015-07-25","111","Vital Signs","Systolic Blood Pressure","mmHg",112.71729057099,"90","120"
"02-017","Visit 2","2","2015-07-25","111","Vital Signs","Temperature","°C",36.8601915456274,"36.6","37"
"02-017","Visit 3","3","2015-09-13","161","Vital Signs","Diastolic Blood Pressure","mmHg",70.927084177525,"60","80"
"02-017","Visit 3","3","2015-09-13","161","Vital Signs","Heart Rate","beats/minute",54.9400590130448,"50","80"
"02-017","Visit 3","3","2015-09-13","161","Vital Signs","Respiratory Rate","breaths/minute",,"16","20"
"02-017","Visit 3","3","2015-09-13","161","Vital Signs","Systolic Blood Pressure","mmHg",85.6375708213362,"90","120"
"02-017","Visit 3","3","2015-09-13","161","Vital Signs","Temperature","°C",36.8286030138938,"36.6","37"
"02-017","Visit 4","4","2015-11-22","231","Vital Signs","Diastolic Blood Pressure","mmHg",60.5635013132673,"60","80"
"02-017","Visit 4","4","2015-11-22","231","Vital Signs","Heart Rate","beats/minute",64.8803724688202,"50","80"
"02-017","Visit 4","4","2015-11-22","231","Vital Signs","Respiratory Rate","breaths/minute",19.6402686422122,"16","20"
"02-017","Visit 4","4","2015-11-22","231","Vital Signs","Systolic Blood Pressure","mmHg",115.207235365045,"90","120"
"02-017","Visit 4","4","2015-11-22","231","Vital Signs","Temperature","°C",36.7433949361371,"36.6","37"
"02-017","Visit 5","5","2016-01-12","282","Vital Signs","Diastolic Blood Pressure","mmHg",70.6538060302662,"60","80"
"02-017","Visit 5","5","2016-01-12","282","Vital Signs","Heart Rate","beats/minute",44.9738636146335,"50","80"
"02-017","Visit 5","5","2016-01-12","282","Vital Signs","Respiratory Rate","breaths/minute",21.5308916612269,"16","20"
"02-017","Visit 5","5","2016-01-12","282","Vital Signs","Systolic Blood Pressure","mmHg",,"90","120"
"02-017","Visit 5","5","2016-01-12","282","Vital Signs","Temperature","°C",36.4346316816673,"36.6","37"
"02-017","Visit 6","6","2016-03-03","333","Vital Signs","Diastolic Blood Pressure","mmHg",87.2306412792628,"60","80"
"02-017","Visit 6","6","2016-03-03","333","Vital Signs","Heart Rate","beats/minute",56.1892130184689,"50","80"
"02-017","Visit 6","6","2016-03-03","333","Vital Signs","Respiratory Rate","breaths/minute",13.221673880203,"16","20"
"02-017","Visit 6","6","2016-03-03","333","Vital Signs","Systolic Blood Pressure","mmHg",108.229081765089,"90","120"
"02-017","Visit 6","6","2016-03-03","333","Vital Signs","Temperature","°C",36.6175350207656,"36.6","37"
"02-017","End of Study","7","2016-03-25","355","Vital Signs","Diastolic Blood Pressure","mmHg",69.189793938512,"60","80"
"02-017","End of Study","7","2016-03-25","355","Vital Signs","Heart Rate","beats/minute",59.06408702954,"50","80"
"02-017","End of Study","7","2016-03-25","355","Vital Signs","Respiratory Rate","breaths/minute",17.8930676610699,"16","20"
"02-017","End of Study","7","2016-03-25","355","Vital Signs","Systolic Blood Pressure","mmHg",,"90","120"
"02-017","End of Study","7","2016-03-25","355","Vital Signs","Temperature","°C",36.4803623370906,"36.6","37"
"02-018","Screening","0","2015-11-23","1","Vital Signs","Diastolic Blood Pressure","mmHg",53.2965580813648,"60","80"
"02-018","Screening","0","2015-11-23","1","Vital Signs","Heart Rate","beats/minute",75.444448084081,"50","80"
"02-018","Screening","0","2015-11-23","1","Vital Signs","Respiratory Rate","breaths/minute",16.064616841613,"16","20"
"02-018","Screening","0","2015-11-23","1","Vital Signs","Systolic Blood Pressure","mmHg",68.3560644659787,"90","120"
"02-018","Screening","0","2015-11-23","1","Vital Signs","Temperature","°C",37.0370526753754,"36.6","37"
"02-018","Visit 1","1","2016-01-16","55","Vital Signs","Diastolic Blood Pressure","mmHg",,"60","80"
"02-018","Visit 1","1","2016-01-16","55","Vital Signs","Heart Rate","beats/minute",67.882794392156,"50","80"
"02-018","Visit 1","1","2016-01-16","55","Vital Signs","Respiratory Rate","breaths/minute",19.6441071716303,"16","20"
"02-018","Visit 1","1","2016-01-16","55","Vital Signs","Systolic Blood Pressure","mmHg",113.870316939052,"90","120"
"02-018","Visit 1","1","2016-01-16","55","Vital Signs","Temperature","°C",36.6469353218516,"36.6","37"
"02-018","Visit 2","2","2016-03-15","114","Vital Signs","Diastolic Blood Pressure","mmHg",65.9935790408969,"60","80"
"02-018","Visit 2","2","2016-03-15","114","Vital Signs","Heart Rate","beats/minute",80.432355792547,"50","80"
"02-018","Visit 2","2","2016-03-15","114","Vital Signs","Respiratory Rate","breaths/minute",19.896378550771,"16","20"
"02-018","Visit 2","2","2016-03-15","114","Vital Signs","Systolic Blood Pressure","mmHg",98.556217964347,"90","120"
"02-018","Visit 2","2","2016-03-15","114","Vital Signs","Temperature","°C",,"36.6","37"
"02-018","Visit 3","3","2016-05-14","174","Vital Signs","Diastolic Blood Pressure","mmHg",62.0716273811437,"60","80"
"02-018","Visit 3","3","2016-05-14","174","Vital Signs","Heart Rate","beats/minute",30.6687384647831,"50","80"
"02-018","Visit 3","3","2016-05-14","174","Vital Signs","Respiratory Rate","breaths/minute",,"16","20"
"02-018","Visit 3","3","2016-05-14","174","Vital Signs","Systolic Blood Pressure","mmHg",99.314833858472,"90","120"
"02-018","Visit 3","3","2016-05-14","174","Vital Signs","Temperature","°C",36.7209731713221,"36.6","37"
"02-018","Visit 4","4","2016-07-01","222","Vital Signs","Diastolic Blood Pressure","mmHg",80.6393549479386,"60","80"
"02-018","Visit 4","4","2016-07-01","222","Vital Signs","Heart Rate","beats/minute",62.1309980740784,"50","80"
"02-018","Visit 4","4","2016-07-01","222","Vital Signs","Respiratory Rate","breaths/minute",20.4943318581596,"16","20"
"02-018","Visit 4","4","2016-07-01","222","Vital Signs","Systolic Blood Pressure","mmHg",89.3780438693979,"90","120"
"02-018","Visit 4","4","2016-07-01","222","Vital Signs","Temperature","°C",36.710993063659,"36.6","37"
"02-018","Visit 5","5","2016-08-21","273","Vital Signs","Diastolic Blood Pressure","mmHg",89.5096495367199,"60","80"
"02-018","Visit 5","5","2016-08-21","273","Vital Signs","Heart Rate","beats/minute",59.1560026836496,"50","80"
"02-018","Visit 5","5","2016-08-21","273","Vital Signs","Respiratory Rate","breaths/minute",18.4515333389947,"16","20"
"02-018","Visit 5","5","2016-08-21","273","Vital Signs","Systolic Blood Pressure","mmHg",,"90","120"
"02-018","Visit 5","5","2016-08-21","273","Vital Signs","Temperature","°C",37.0741316486923,"36.6","37"
"02-018","Visit 6","6","2016-10-16","329","Vital Signs","Diastolic Blood Pressure","mmHg",74.057305163692,"60","80"
"02-018","Visit 6","6","2016-10-16","329","Vital Signs","Heart Rate","beats/minute",58.6267147479167,"50","80"
"02-018","Visit 6","6","2016-10-16","329","Vital Signs","Respiratory Rate","breaths/minute",14.2136216341029,"16","20"
"02-018","Visit 6","6","2016-10-16","329","Vital Signs","Systolic Blood Pressure","mmHg",107.446223836563,"90","120"
"02-018","Visit 6","6","2016-10-16","329","Vital Signs","Temperature","°C",36.798925567983,"36.6","37"
"02-018","End of Study","7","2016-11-13","357","Vital Signs","Diastolic Blood Pressure","mmHg",75.608172088259,"60","80"
"02-018","End of Study","7","2016-11-13","357","Vital Signs","Heart Rate","beats/minute",49.3294023119834,"50","80"
"02-018","End of Study","7","2016-11-13","357","Vital Signs","Respiratory Rate","breaths/minute",17.0097284246675,"16","20"
"02-018","End of Study","7","2016-11-13","357","Vital Signs","Systolic Blood Pressure","mmHg",,"90","120"
"02-018","End of Study","7","2016-11-13","357","Vital Signs","Temperature","°C",36.9550414454162,"36.6","37"
"02-019","Screening","0","2015-02-16","1","Vital Signs","Diastolic Blood Pressure","mmHg",46.2285135120921,"60","80"
"02-019","Screening","0","2015-02-16","1","Vital Signs","Heart Rate","beats/minute",63.3719170630434,"50","80"
"02-019","Screening","0","2015-02-16","1","Vital Signs","Respiratory Rate","breaths/minute",17.6094175459878,"16","20"
"02-019","Screening","0","2015-02-16","1","Vital Signs","Systolic Blood Pressure","mmHg",87.5347673444683,"90","120"
"02-019","Screening","0","2015-02-16","1","Vital Signs","Temperature","°C",37.0247206670915,"36.6","37"
"02-019","Visit 1","1","2015-04-06","50","Vital Signs","Diastolic Blood Pressure","mmHg",,"60","80"
"02-019","Visit 1","1","2015-04-06","50","Vital Signs","Heart Rate","beats/minute",83.4022375785853,"50","80"
"02-019","Visit 1","1","2015-04-06","50","Vital Signs","Respiratory Rate","breaths/minute",18.5162588430663,"16","20"
"02-019","Visit 1","1","2015-04-06","50","Vital Signs","Systolic Blood Pressure","mmHg",107.085066988344,"90","120"
"02-019","Visit 1","1","2015-04-06","50","Vital Signs","Temperature","°C",36.7142889462806,"36.6","37"
"02-019","Visit 2","2","2015-06-08","113","Vital Signs","Diastolic Blood Pressure","mmHg",60.9169671905121,"60","80"
"02-019","Visit 2","2","2015-06-08","113","Vital Signs","Heart Rate","beats/minute",61.0443921536983,"50","80"
"02-019","Visit 2","2","2015-06-08","113","Vital Signs","Respiratory Rate","breaths/minute",17.7009510236122,"16","20"
"02-019","Visit 2","2","2015-06-08","113","Vital Signs","Systolic Blood Pressure","mmHg",88.9818018459317,"90","120"
"02-019","Visit 2","2","2015-06-08","113","Vital Signs","Temperature","°C",36.8797653626387,"36.6","37"
"02-020","Screening","0","2015-07-14","1","Vital Signs","Diastolic Blood Pressure","mmHg",63.5304580271029,"60","80"
"02-020","Screening","0","2015-07-14","1","Vital Signs","Heart Rate","beats/minute",64.5263728268911,"50","80"
"02-020","Screening","0","2015-07-14","1","Vital Signs","Respiratory Rate","breaths/minute",19.9906236593868,"16","20"
"02-020","Screening","0","2015-07-14","1","Vital Signs","Systolic Blood Pressure","mmHg",108.107954603708,"90","120"
"02-020","Screening","0","2015-07-14","1","Vital Signs","Temperature","°C",37.2909488003333,"36.6","37"
"02-020","Visit 1","1","2015-09-03","52","Vital Signs","Diastolic Blood Pressure","mmHg",,"60","80"
"02-020","Visit 1","1","2015-09-03","52","Vital Signs","Heart Rate","beats/minute",54.4392111885164,"50","80"
"02-020","Visit 1","1","2015-09-03","52","Vital Signs","Respiratory Rate","breaths/minute",16.0070205346086,"16","20"
"02-020","Visit 1","1","2015-09-03","52","Vital Signs","Systolic Blood Pressure","mmHg",76.0027189264476,"90","120"
"02-020","Visit 1","1","2015-09-03","52","Vital Signs","Temperature","°C",37.0903105327513,"36.6","37"
"02-020","Visit 2","2","2015-11-02","112","Vital Signs","Diastolic Blood Pressure","mmHg",79.9549877352257,"60","80"
"02-020","Visit 2","2","2015-11-02","112","Vital Signs","Heart Rate","beats/minute",98.7247390955606,"50","80"
"02-020","Visit 2","2","2015-11-02","112","Vital Signs","Respiratory Rate","breaths/minute",17.6969407048463,"16","20"
"02-020","Visit 2","2","2015-11-02","112","Vital Signs","Systolic Blood Pressure","mmHg",83.4088608976839,"90","120"
"02-020","Visit 2","2","2015-11-02","112","Vital Signs","Temperature","°C",36.4496229130648,"36.6","37"
"02-020","Visit 3","3","2015-12-28","168","Vital Signs","Diastolic Blood Pressure","mmHg",77.4471360360314,"60","80"
"02-020","Visit 3","3","2015-12-28","168","Vital Signs","Heart Rate","beats/minute",70.9954422548431,"50","80"
"02-020","Visit 3","3","2015-12-28","168","Vital Signs","Respiratory Rate","breaths/minute",,"16","20"
"02-020","Visit 3","3","2015-12-28","168","Vital Signs","Systolic Blood Pressure","mmHg",73.4993378404148,"90","120"
"02-020","Visit 3","3","2015-12-28","168","Vital Signs","Temperature","°C",37.182835586517,"36.6","37"
"02-020","Visit 4","4","2016-02-24","226","Vital Signs","Diastolic Blood Pressure","mmHg",76.8937828375907,"60","80"
"02-020","Visit 4","4","2016-02-24","226","Vital Signs","Heart Rate","beats/minute",63.1429904688301,"50","80"
"02-020","Visit 4","4","2016-02-24","226","Vital Signs","Respiratory Rate","breaths/minute",16.6813797901355,"16","20"
"02-020","Visit 4","4","2016-02-24","226","Vital Signs","Systolic Blood Pressure","mmHg",127.771474954182,"90","120"
"02-020","Visit 4","4","2016-02-24","226","Vital Signs","Temperature","°C",36.9401480565892,"36.6","37"
"02-020","Visit 5","5","2016-04-24","286","Vital Signs","Diastolic Blood Pressure","mmHg",66.640193914356,"60","80"
"02-020","Visit 5","5","2016-04-24","286","Vital Signs","Heart Rate","beats/minute",84.928980796398,"50","80"
"02-020","Visit 5","5","2016-04-24","286","Vital Signs","Respiratory Rate","breaths/minute",16.5439194456804,"16","20"
"02-020","Visit 5","5","2016-04-24","286","Vital Signs","Systolic Blood Pressure","mmHg",,"90","120"
"02-020","Visit 5","5","2016-04-24","286","Vital Signs","Temperature","°C",36.9046633659821,"36.6","37"
"02-020","Visit 6","6","2016-06-09","332","Vital Signs","Diastolic Blood Pressure","mmHg",93.2509539240934,"60","80"
"02-020","Visit 6","6","2016-06-09","332","Vital Signs","Heart Rate","beats/minute",43.3773650857972,"50","80"
"02-020","Visit 6","6","2016-06-09","332","Vital Signs","Respiratory Rate","breaths/minute",18.9875844444398,"16","20"
"02-020","Visit 6","6","2016-06-09","332","Vital Signs","Systolic Blood Pressure","mmHg",79.8902171829244,"90","120"
"02-020","Visit 6","6","2016-06-09","332","Vital Signs","Temperature","°C",36.8022235446049,"36.6","37"
"02-020","Unscheduled 6.1","6.1","2016-06-17","340","Vital Signs","Diastolic Blood Pressure","mmHg",75.6178488777447,"60","80"
"02-020","Unscheduled 6.1","6.1","2016-06-17","340","Vital Signs","Heart Rate","beats/minute",45.3621789625729,"50","80"
"02-020","Unscheduled 6.1","6.1","2016-06-17","340","Vital Signs","Respiratory Rate","breaths/minute",18.2555872571475,"16","20"
"02-020","Unscheduled 6.1","6.1","2016-06-17","340","Vital Signs","Systolic Blood Pressure","mmHg",91.9846981747191,"90","120"
"02-020","Unscheduled 6.1","6.1","2016-06-17","340","Vital Signs","Temperature","°C",36.7528065136301,"36.6","37"
"02-020","Early Termination","6.9","2016-06-18","341","Vital Signs","Diastolic Blood Pressure","mmHg",56.9511689038029,"60","80"
"02-020","Early Termination","6.9","2016-06-18","341","Vital Signs","Heart Rate","beats/minute",66.5455836941219,"50","80"
"02-020","Early Termination","6.9","2016-06-18","341","Vital Signs","Respiratory Rate","breaths/minute",20.0239733143281,"16","20"
"02-020","Early Termination","6.9","2016-06-18","341","Vital Signs","Systolic Blood Pressure","mmHg",113.584435575719,"90","120"
"02-020","Early Termination","6.9","2016-06-18","341","Vital Signs","Temperature","°C",36.9082699933431,"36.6","37"
"02-021","Screening","0","2015-10-01","1","Vital Signs","Diastolic Blood Pressure","mmHg",67.3620988422301,"60","80"
"02-021","Screening","0","2015-10-01","1","Vital Signs","Heart Rate","beats/minute",30.4674914647831,"50","80"
"02-021","Screening","0","2015-10-01","1","Vital Signs","Respiratory Rate","breaths/minute",11.9547240802137,"16","20"
"02-021","Screening","0","2015-10-01","1","Vital Signs","Systolic Blood Pressure","mmHg",86.7244700177079,"90","120"
"02-021","Screening","0","2015-10-01","1","Vital Signs","Temperature","°C",36.6148949457239,"36.6","37"
"02-021","Visit 2","2","2016-01-19","111","Vital Signs","Diastolic Blood Pressure","mmHg",85.7615157959672,"60","80"
"02-021","Visit 2","2","2016-01-19","111","Vital Signs","Heart Rate","beats/minute",89.5873829982449,"50","80"
"02-021","Visit 2","2","2016-01-19","111","Vital Signs","Respiratory Rate","breaths/minute",14.8564105809923,"16","20"
"02-021","Visit 2","2","2016-01-19","111","Vital Signs","Systolic Blood Pressure","mmHg",101.869076261359,"90","120"
"02-021","Visit 2","2","2016-01-19","111","Vital Signs","Temperature","°C",36.7044963679326,"36.6","37"
"02-021","Visit 3","3","2016-03-17","169","Vital Signs","Diastolic Blood Pressure","mmHg",69.4456760715314,"60","80"
"02-021","Visit 3","3","2016-03-17","169","Vital Signs","Heart Rate","beats/minute",76.7306984693387,"50","80"
"02-021","Visit 3","3","2016-03-17","169","Vital Signs","Respiratory Rate","breaths/minute",,"16","20"
"02-021","Visit 3","3","2016-03-17","169","Vital Signs","Systolic Blood Pressure","mmHg",112.105131089163,"90","120"
"02-021","Visit 3","3","2016-03-17","169","Vital Signs","Temperature","°C",36.7654949690717,"36.6","37"
"02-021","Visit 4","4","2016-05-12","225","Vital Signs","Diastolic Blood Pressure","mmHg",75.5991782814294,"60","80"
"02-021","Visit 4","4","2016-05-12","225","Vital Signs","Heart Rate","beats/minute",,"50","80"
"02-021","Visit 4","4","2016-05-12","225","Vital Signs","Respiratory Rate","breaths/minute",19.0631314305594,"16","20"
"02-021","Visit 4","4","2016-05-12","225","Vital Signs","Systolic Blood Pressure","mmHg",103.825830196068,"90","120"
"02-021","Visit 4","4","2016-05-12","225","Vital Signs","Temperature","°C",37.0694659222519,"36.6","37"
"02-021","Visit 5","5","2016-07-09","283","Vital Signs","Diastolic Blood Pressure","mmHg",74.7792837468319,"60","80"
"02-021","Visit 5","5","2016-07-09","283","Vital Signs","Heart Rate","beats/minute",49.9092541186169,"50","80"
"02-021","Visit 5","5","2016-07-09","283","Vital Signs","Respiratory Rate","breaths/minute",21.6527508865025,"16","20"
"02-021","Visit 5","5","2016-07-09","283","Vital Signs","Systolic Blood Pressure","mmHg",,"90","120"
"02-021","Visit 5","5","2016-07-09","283","Vital Signs","Temperature","°C",36.7077988476182,"36.6","37"
"02-022","Screening","0","2015-12-27","1","Vital Signs","Diastolic Blood Pressure","mmHg",60.7599894902066,"60","80"
"02-022","Screening","0","2015-12-27","1","Vital Signs","Heart Rate","beats/minute",74.439737715313,"50","80"
"02-022","Screening","0","2015-12-27","1","Vital Signs","Respiratory Rate","breaths/minute",18.0353639732028,"16","20"
"02-022","Screening","0","2015-12-27","1","Vital Signs","Systolic Blood Pressure","mmHg",120.692697300528,"90","120"
"02-022","Screening","0","2015-12-27","1","Vital Signs","Temperature","°C",37.1303037653935,"36.6","37"
"02-023","Screening","0","2015-12-06","1","Vital Signs","Diastolic Blood Pressure","mmHg",80.5005139971459,"60","80"
"02-023","Screening","0","2015-12-06","1","Vital Signs","Heart Rate","beats/minute",69.4321996144592,"50","80"
"02-023","Screening","0","2015-12-06","1","Vital Signs","Respiratory Rate","breaths/minute",21.9875780972132,"16","20"
"02-023","Screening","0","2015-12-06","1","Vital Signs","Systolic Blood Pressure","mmHg",71.3144920295594,"90","120"
"02-023","Screening","0","2015-12-06","1","Vital Signs","Temperature","°C",37.3374633198454,"36.6","37"
"02-023","Visit 1","1","2016-02-03","60","Vital Signs","Diastolic Blood Pressure","mmHg",,"60","80"
"02-023","Visit 1","1","2016-02-03","60","Vital Signs","Heart Rate","beats/minute",50.9924254156472,"50","80"
"02-023","Visit 1","1","2016-02-03","60","Vital Signs","Respiratory Rate","breaths/minute",19.1277368448468,"16","20"
"02-023","Visit 1","1","2016-02-03","60","Vital Signs","Systolic Blood Pressure","mmHg",96.0595804231833,"90","120"
"02-023","Visit 1","1","2016-02-03","60","Vital Signs","Temperature","°C",36.7550438784754,"36.6","37"
"02-023","Visit 3","3","2016-05-16","163","Vital Signs","Diastolic Blood Pressure","mmHg",61.5941959062919,"60","80"
"02-023","Visit 3","3","2016-05-16","163","Vital Signs","Heart Rate","beats/minute",46.5618537325846,"50","80"
"02-023","Visit 3","3","2016-05-16","163","Vital Signs","Respiratory Rate","breaths/minute",,"16","20"
"02-023","Visit 3","3","2016-05-16","163","Vital Signs","Systolic Blood Pressure","mmHg",89.0168277133113,"90","120"
"02-023","Visit 3","3","2016-05-16","163","Vital Signs","Temperature","°C",36.8973531616436,"36.6","37"
"02-023","Visit 4","4","2016-07-15","223","Vital Signs","Diastolic Blood Pressure","mmHg",75.0667429156276,"60","80"
"02-023","Visit 4","4","2016-07-15","223","Vital Signs","Heart Rate","beats/minute",61.0972660007386,"50","80"
"02-023","Visit 4","4","2016-07-15","223","Vital Signs","Respiratory Rate","breaths/minute",16.3764351849841,"16","20"
"02-023","Visit 4","4","2016-07-15","223","Vital Signs","Systolic Blood Pressure","mmHg",98.73725059879,"90","120"
"02-023","Visit 4","4","2016-07-15","223","Vital Signs","Temperature","°C",36.8210855318866,"36.6","37"
"02-023","Visit 5","5","2016-09-05","275","Vital Signs","Diastolic Blood Pressure","mmHg",78.3645437470767,"60","80"
"02-023","Visit 5","5","2016-09-05","275","Vital Signs","Heart Rate","beats/minute",59.1708152533885,"50","80"
"02-023","Visit 5","5","2016-09-05","275","Vital Signs","Respiratory Rate","breaths/minute",17.701741292747,"16","20"
"02-023","Visit 5","5","2016-09-05","275","Vital Signs","Systolic Blood Pressure","mmHg",,"90","120"
"02-023","Visit 5","5","2016-09-05","275","Vital Signs","Temperature","°C",36.8315500422133,"36.6","37"
"02-023","Visit 6","6","2016-11-10","341","Vital Signs","Diastolic Blood Pressure","mmHg",59.2725252664698,"60","80"
"02-023","Visit 6","6","2016-11-10","341","Vital Signs","Heart Rate","beats/minute",69.7795956879678,"50","80"
"02-023","Visit 6","6","2016-11-10","341","Vital Signs","Respiratory Rate","breaths/minute",17.1469390851758,"16","20"
"02-023","Visit 6","6","2016-11-10","341","Vital Signs","Systolic Blood Pressure","mmHg",109.644062919525,"90","120"
"02-023","Visit 6","6","2016-11-10","341","Vital Signs","Temperature","°C",36.8513430749711,"36.6","37"
"02-023","End of Study","7","2016-11-26","357","Vital Signs","Diastolic Blood Pressure","mmHg",87.115584666816,"60","80"
"02-023","End of Study","7","2016-11-26","357","Vital Signs","Heart Rate","beats/minute",71.8040516973772,"50","80"
"02-023","End of Study","7","2016-11-26","357","Vital Signs","Respiratory Rate","breaths/minute",16.859754758905,"16","20"
"02-023","End of Study","7","2016-11-26","357","Vital Signs","Systolic Blood Pressure","mmHg",,"90","120"
"02-023","End of Study","7","2016-11-26","357","Vital Signs","Temperature","°C",36.992080223436,"36.6","37"
"02-024","Screening","0","2015-02-28","1","Vital Signs","Diastolic Blood Pressure","mmHg",73.057414787823,"60","80"
"02-024","Screening","0","2015-02-28","1","Vital Signs","Heart Rate","beats/minute",56.0616814998276,"50","80"
"02-024","Screening","0","2015-02-28","1","Vital Signs","Respiratory Rate","breaths/minute",17.3437089065684,"16","20"
"02-024","Screening","0","2015-02-28","1","Vital Signs","Systolic Blood Pressure","mmHg",96.5560071736377,"90","120"
"02-024","Screening","0","2015-02-28","1","Vital Signs","Temperature","°C",37.0542490231853,"36.6","37"
"02-024","Visit 1","1","2015-04-27","59","Vital Signs","Diastolic Blood Pressure","mmHg",,"60","80"
"02-024","Visit 1","1","2015-04-27","59","Vital Signs","Heart Rate","beats/minute",74.373926715468,"50","80"
"02-024","Visit 1","1","2015-04-27","59","Vital Signs","Respiratory Rate","breaths/minute",15.846763286526,"16","20"
"02-024","Visit 1","1","2015-04-27","59","Vital Signs","Systolic Blood Pressure","mmHg",112.484315674406,"90","120"
"02-024","Visit 1","1","2015-04-27","59","Vital Signs","Temperature","°C",36.8905066074815,"36.6","37"
"02-026","Screening","0","2015-04-03","1","Vital Signs","Diastolic Blood Pressure","mmHg",67.6681069396215,"60","80"
"02-026","Screening","0","2015-04-03","1","Vital Signs","Heart Rate","beats/minute",66.5152040160206,"50","80"
"02-026","Screening","0","2015-04-03","1","Vital Signs","Respiratory Rate","breaths/minute",22.0004573902435,"16","20"
"02-026","Screening","0","2015-04-03","1","Vital Signs","Systolic Blood Pressure","mmHg",101.744335220238,"90","120"
"02-026","Screening","0","2015-04-03","1","Vital Signs","Temperature","°C",36.5497389105456,"36.6","37"
"02-026","Visit 1","1","2015-05-21","49","Vital Signs","Diastolic Blood Pressure","mmHg",,"60","80"
"02-026","Visit 1","1","2015-05-21","49","Vital Signs","Heart Rate","beats/minute",66.9108924383462,"50","80"
"02-026","Visit 1","1","2015-05-21","49","Vital Signs","Respiratory Rate","breaths/minute",15.9853800365057,"16","20"
"02-026","Visit 1","1","2015-05-21","49","Vital Signs","Systolic Blood Pressure","mmHg",86.8434761192825,"90","120"
"02-026","Visit 1","1","2015-05-21","49","Vital Signs","Temperature","°C",36.912819271729,"36.6","37"
"02-026","Visit 2","2","2015-07-30","119","Vital Signs","Diastolic Blood Pressure","mmHg",75.4618508481635,"60","80"
"02-026","Visit 2","2","2015-07-30","119","Vital Signs","Heart Rate","beats/minute",56.3063007536794,"50","80"
"02-026","Visit 2","2","2015-07-30","119","Vital Signs","Respiratory Rate","breaths/minute",17.2650847089256,"16","20"
"02-026","Visit 2","2","2015-07-30","119","Vital Signs","Systolic Blood Pressure","mmHg",123.488509109408,"90","120"
"02-026","Visit 2","2","2015-07-30","119","Vital Signs","Temperature","°C",36.6963394500506,"36.6","37"
"02-026","Visit 3","3","2015-09-12","163","Vital Signs","Diastolic Blood Pressure","mmHg",78.5414443612266,"60","80"
"02-026","Visit 3","3","2015-09-12","163","Vital Signs","Heart Rate","beats/minute",70.2667445314765,"50","80"
"02-026","Visit 3","3","2015-09-12","163","Vital Signs","Respiratory Rate","breaths/minute",,"16","20"
"02-026","Visit 3","3","2015-09-12","163","Vital Signs","Systolic Blood Pressure","mmHg",92.459415048328,"90","120"
"02-026","Visit 3","3","2015-09-12","163","Vital Signs","Temperature","°C",36.8389792400381,"36.6","37"
"02-026","Visit 4","4","2015-11-12","224","Vital Signs","Diastolic Blood Pressure","mmHg",56.9972584610048,"60","80"
"02-026","Visit 4","4","2015-11-12","224","Vital Signs","Heart Rate","beats/minute",69.7027118406227,"50","80"
"02-026","Visit 4","4","2015-11-12","224","Vital Signs","Respiratory Rate","breaths/minute",21.9514465462788,"16","20"
"02-026","Visit 4","4","2015-11-12","224","Vital Signs","Systolic Blood Pressure","mmHg",121.021782605484,"90","120"
"02-026","Visit 4","4","2015-11-12","224","Vital Signs","Temperature","°C",36.9804761154357,"36.6","37"
"02-026","Visit 5","5","2016-01-07","280","Vital Signs","Diastolic Blood Pressure","mmHg",74.250400362652,"60","80"
"02-026","Visit 5","5","2016-01-07","280","Vital Signs","Heart Rate","beats/minute",61.1623352394009,"50","80"
"02-026","Visit 5","5","2016-01-07","280","Vital Signs","Respiratory Rate","breaths/minute",18.3612488076392,"16","20"
"02-026","Visit 5","5","2016-01-07","280","Vital Signs","Systolic Blood Pressure","mmHg",,"90","120"
"02-026","Visit 5","5","2016-01-07","280","Vital Signs","Temperature","°C",37.0904114707498,"36.6","37"
"02-026","Visit 6","6","2016-03-04","337","Vital Signs","Diastolic Blood Pressure","mmHg",74.3077557424772,"60","80"
"02-026","Visit 6","6","2016-03-04","337","Vital Signs","Heart Rate","beats/minute",87.9334877091313,"50","80"
"02-026","Visit 6","6","2016-03-04","337","Vital Signs","Respiratory Rate","breaths/minute",23.2471947934637,"16","20"
"02-026","Visit 6","6","2016-03-04","337","Vital Signs","Systolic Blood Pressure","mmHg",111.95291173311,"90","120"
"02-026","Visit 6","6","2016-03-04","337","Vital Signs","Temperature","°C",36.9172760636233,"36.6","37"
"02-026","End of Study","7","2016-03-25","358","Vital Signs","Diastolic Blood Pressure","mmHg",74.3564406689882,"60","80"
"02-026","End of Study","7","2016-03-25","358","Vital Signs","Heart Rate","beats/minute",,"50","80"
"02-026","End of Study","7","2016-03-25","358","Vital Signs","Respiratory Rate","breaths/minute",16.6667086275635,"16","20"
"02-026","End of Study","7","2016-03-25","358","Vital Signs","Systolic Blood Pressure","mmHg",,"90","120"
"02-026","End of Study","7","2016-03-25","358","Vital Signs","Temperature","°C",37.2527007957543,"36.6","37"
"02-027","Screening","0","2015-03-08","1","Vital Signs","Diastolic Blood Pressure","mmHg",57.631713829619,"60","80"
"02-027","Screening","0","2015-03-08","1","Vital Signs","Heart Rate","beats/minute",72.6163812942752,"50","80"
"02-027","Screening","0","2015-03-08","1","Vital Signs","Respiratory Rate","breaths/minute",13.6909673552165,"16","20"
"02-027","Screening","0","2015-03-08","1","Vital Signs","Systolic Blood Pressure","mmHg",108.338852514373,"90","120"
"02-027","Screening","0","2015-03-08","1","Vital Signs","Temperature","°C",37.206337944316,"36.6","37"
"02-027","Visit 1","1","2015-04-25","49","Vital Signs","Diastolic Blood Pressure","mmHg",,"60","80"
"02-027","Visit 1","1","2015-04-25","49","Vital Signs","Heart Rate","beats/minute",52.2944007428505,"50","80"
"02-027","Visit 1","1","2015-04-25","49","Vital Signs","Respiratory Rate","breaths/minute",18.342940554724,"16","20"
"02-027","Visit 1","1","2015-04-25","49","Vital Signs","Systolic Blood Pressure","mmHg",79.0911970919029,"90","120"
"02-027","Visit 1","1","2015-04-25","49","Vital Signs","Temperature","°C",36.7086815446311,"36.6","37"
"02-027","Visit 2","2","2015-07-04","119","Vital Signs","Diastolic Blood Pressure","mmHg",74.2035124094333,"60","80"
"02-027","Visit 2","2","2015-07-04","119","Vital Signs","Heart Rate","beats/minute",74.2383992984979,"50","80"
"02-027","Visit 2","2","2015-07-04","119","Vital Signs","Respiratory Rate","breaths/minute",20.5559854884718,"16","20"
"02-027","Visit 2","2","2015-07-04","119","Vital Signs","Systolic Blood Pressure","mmHg",121.711128991326,"90","120"
"02-027","Visit 2","2","2015-07-04","119","Vital Signs","Temperature","°C",36.6990394922355,"36.6","37"
"02-027","Visit 3","3","2015-08-28","174","Vital Signs","Diastolic Blood Pressure","mmHg",74.6031317393111,"60","80"
"02-027","Visit 3","3","2015-08-28","174","Vital Signs","Heart Rate","beats/minute",58.7077807416785,"50","80"
"02-027","Visit 3","3","2015-08-28","174","Vital Signs","Respiratory Rate","breaths/minute",,"16","20"
"02-027","Visit 3","3","2015-08-28","174","Vital Signs","Systolic Blood Pressure","mmHg",114.962325585513,"90","120"
"02-027","Visit 3","3","2015-08-28","174","Vital Signs","Temperature","°C",36.7243219528916,"36.6","37"
"02-027","Unscheduled 3.1","3.1","2015-09-05","182","Vital Signs","Diastolic Blood Pressure","mmHg",71.2242657897888,"60","80"
"02-027","Unscheduled 3.1","3.1","2015-09-05","182","Vital Signs","Heart Rate","beats/minute",79.5265879703271,"50","80"
"02-027","Unscheduled 3.1","3.1","2015-09-05","182","Vital Signs","Respiratory Rate","breaths/minute",14.8214740491103,"16","20"
"02-027","Unscheduled 3.1","3.1","2015-09-05","182","Vital Signs","Systolic Blood Pressure","mmHg",94.4484102407336,"90","120"
"02-027","Unscheduled 3.1","3.1","2015-09-05","182","Vital Signs","Temperature","°C",36.6537266165887,"36.6","37"
"02-027","Visit 4","4","2015-10-14","221","Vital Signs","Diastolic Blood Pressure","mmHg",64.3591142611356,"60","80"
"02-027","Visit 4","4","2015-10-14","221","Vital Signs","Heart Rate","beats/minute",45.2015431165226,"50","80"
"02-027","Visit 4","4","2015-10-14","221","Vital Signs","Respiratory Rate","breaths/minute",16.6423719590056,"16","20"
"02-027","Visit 4","4","2015-10-14","221","Vital Signs","Systolic Blood Pressure","mmHg",92.7063417694306,"90","120"
"02-027","Visit 4","4","2015-10-14","221","Vital Signs","Temperature","°C",37.0512486987231,"36.6","37"
"02-027","Unscheduled 4.1","4.1","2015-10-22","229","Vital Signs","Diastolic Blood Pressure","mmHg",78.8521423991824,"60","80"
"02-027","Unscheduled 4.1","4.1","2015-10-22","229","Vital Signs","Heart Rate","beats/minute",67.9387895029112,"50","80"
"02-027","Unscheduled 4.1","4.1","2015-10-22","229","Vital Signs","Respiratory Rate","breaths/minute",18.6090936337314,"16","20"
"02-027","Unscheduled 4.1","4.1","2015-10-22","229","Vital Signs","Systolic Blood Pressure","mmHg",108.988951314175,"90","120"
"02-027","Unscheduled 4.1","4.1","2015-10-22","229","Vital Signs","Temperature","°C",36.9573323189649,"36.6","37"
"02-027","Visit 5","5","2015-12-19","287","Vital Signs","Diastolic Blood Pressure","mmHg",,"60","80"
"02-027","Visit 5","5","2015-12-19","287","Vital Signs","Heart Rate","beats/minute",70.1181476283722,"50","80"
"02-027","Visit 5","5","2015-12-19","287","Vital Signs","Respiratory Rate","breaths/minute",15.7983242244869,"16","20"
"02-027","Visit 5","5","2015-12-19","287","Vital Signs","Systolic Blood Pressure","mmHg",,"90","120"
"02-027","Visit 5","5","2015-12-19","287","Vital Signs","Temperature","°C",36.8709069397716,"36.6","37"
"02-027","Visit 6","6","2016-02-01","331","Vital Signs","Diastolic Blood Pressure","mmHg",76.5503178829149,"60","80"
"02-027","Visit 6","6","2016-02-01","331","Vital Signs","Heart Rate","beats/minute",70.9842994629227,"50","80"
"02-027","Visit 6","6","2016-02-01","331","Vital Signs","Respiratory Rate","breaths/minute",17.2801871698536,"16","20"
"02-027","Visit 6","6","2016-02-01","331","Vital Signs","Systolic Blood Pressure","mmHg",97.4402132053125,"90","120"
"02-027","Visit 6","6","2016-02-01","331","Vital Signs","Temperature","°C",36.7289033482344,"36.6","37"
"02-027","End of Study","7","2016-03-02","361","Vital Signs","Diastolic Blood Pressure","mmHg",49.3862422902419,"60","80"
"02-027","End of Study","7","2016-03-02","361","Vital Signs","Heart Rate","beats/minute",57.4278231338912,"50","80"
"02-027","End of Study","7","2016-03-02","361","Vital Signs","Respiratory Rate","breaths/minute",15.902635995793,"16","20"
"02-027","End of Study","7","2016-03-02","361","Vital Signs","Systolic Blood Pressure","mmHg",,"90","120"
"02-027","End of Study","7","2016-03-02","361","Vital Signs","Temperature","°C",36.8134222099815,"36.6","37"
"02-028","Screening","0","2015-04-25","1","Vital Signs","Diastolic Blood Pressure","mmHg",79.6118508467012,"60","80"
"02-028","Screening","0","2015-04-25","1","Vital Signs","Heart Rate","beats/minute",55.6912580415692,"50","80"
"02-028","Screening","0","2015-04-25","1","Vital Signs","Respiratory Rate","breaths/minute",17.133165921931,"16","20"
"02-028","Screening","0","2015-04-25","1","Vital Signs","Systolic Blood Pressure","mmHg",88.6982045565627,"90","120"
"02-028","Screening","0","2015-04-25","1","Vital Signs","Temperature","°C",36.5924289716593,"36.6","37"
"02-028","Visit 1","1","2015-06-18","55","Vital Signs","Diastolic Blood Pressure","mmHg",,"60","80"
"02-028","Visit 1","1","2015-06-18","55","Vital Signs","Heart Rate","beats/minute",43.028702308329,"50","80"
"02-028","Visit 1","1","2015-06-18","55","Vital Signs","Respiratory Rate","breaths/minute",19.3934760826885,"16","20"
"02-028","Visit 1","1","2015-06-18","55","Vital Signs","Systolic Blood Pressure","mmHg",92.4121174503619,"90","120"
"02-028","Visit 1","1","2015-06-18","55","Vital Signs","Temperature","°C",36.9176746992687,"36.6","37"
"02-028","Visit 2","2","2015-08-11","109","Vital Signs","Diastolic Blood Pressure","mmHg",61.8453143628448,"60","80"
"02-028","Visit 2","2","2015-08-11","109","Vital Signs","Heart Rate","beats/minute",57.9667996418376,"50","80"
"02-028","Visit 2","2","2015-08-11","109","Vital Signs","Respiratory Rate","breaths/minute",17.5350740024021,"16","20"
"02-028","Visit 2","2","2015-08-11","109","Vital Signs","Systolic Blood Pressure","mmHg",90.7398157526926,"90","120"
"02-028","Visit 2","2","2015-08-11","109","Vital Signs","Temperature","°C",36.3908572961765,"36.6","37"
"02-028","Unscheduled 2.1","2.1","2015-08-19","117","Vital Signs","Diastolic Blood Pressure","mmHg",71.6845994024867,"60","80"
"02-028","Unscheduled 2.1","2.1","2015-08-19","117","Vital Signs","Heart Rate","beats/minute",,"50","80"
"02-028","Unscheduled 2.1","2.1","2015-08-19","117","Vital Signs","Respiratory Rate","breaths/minute",17.592472621655,"16","20"
"02-028","Unscheduled 2.1","2.1","2015-08-19","117","Vital Signs","Systolic Blood Pressure","mmHg",91.6280149023557,"90","120"
"02-028","Unscheduled 2.1","2.1","2015-08-19","117","Vital Signs","Temperature","°C",36.8594856457041,"36.6","37"
"02-028","Visit 3","3","2015-10-03","162","Vital Signs","Diastolic Blood Pressure","mmHg",68.7964391672242,"60","80"
"02-028","Visit 3","3","2015-10-03","162","Vital Signs","Heart Rate","beats/minute",76.5448940557423,"50","80"
"02-028","Visit 3","3","2015-10-03","162","Vital Signs","Respiratory Rate","breaths/minute",,"16","20"
"02-028","Visit 3","3","2015-10-03","162","Vital Signs","Systolic Blood Pressure","mmHg",103.561468800769,"90","120"
"02-028","Visit 3","3","2015-10-03","162","Vital Signs","Temperature","°C",36.6747146056242,"36.6","37"
"02-029","Screening","0","2015-04-26","1","Vital Signs","Diastolic Blood Pressure","mmHg",74.9266591208714,"60","80"
"02-029","Screening","0","2015-04-26","1","Vital Signs","Heart Rate","beats/minute",60.2951513870874,"50","80"
"02-029","Screening","0","2015-04-26","1","Vital Signs","Respiratory Rate","breaths/minute",14.9644555740239,"16","20"
"02-029","Screening","0","2015-04-26","1","Vital Signs","Systolic Blood Pressure","mmHg",71.2408065658788,"90","120"
"02-029","Screening","0","2015-04-26","1","Vital Signs","Temperature","°C",36.7488203787157,"36.6","37"
"02-029","Visit 1","1","2015-06-17","53","Vital Signs","Diastolic Blood Pressure","mmHg",,"60","80"
"02-029","Visit 1","1","2015-06-17","53","Vital Signs","Heart Rate","beats/minute",53.9676005803779,"50","80"
"02-029","Visit 1","1","2015-06-17","53","Vital Signs","Respiratory Rate","breaths/minute",15.5374630099126,"16","20"
"02-029","Visit 1","1","2015-06-17","53","Vital Signs","Systolic Blood Pressure","mmHg",84.3051584204248,"90","120"
"02-029","Visit 1","1","2015-06-17","53","Vital Signs","Temperature","°C",36.8372721841937,"36.6","37"
"02-029","Visit 2","2","2015-08-11","108","Vital Signs","Diastolic Blood Pressure","mmHg",79.4798166292406,"60","80"
"02-029","Visit 2","2","2015-08-11","108","Vital Signs","Heart Rate","beats/minute",41.4205154469198,"50","80"
"02-029","Visit 2","2","2015-08-11","108","Vital Signs","Respiratory Rate","breaths/minute",14.9680889199155,"16","20"
"02-029","Visit 2","2","2015-08-11","108","Vital Signs","Systolic Blood Pressure","mmHg",121.420233204157,"90","120"
"02-029","Visit 2","2","2015-08-11","108","Vital Signs","Temperature","°C",36.8463180362762,"36.6","37"
"02-029","Unscheduled 2.1","2.1","2015-08-19","116","Vital Signs","Diastolic Blood Pressure","mmHg",86.5600412543522,"60","80"
"02-029","Unscheduled 2.1","2.1","2015-08-19","116","Vital Signs","Heart Rate","beats/minute",50.9556626859421,"50","80"
"02-029","Unscheduled 2.1","2.1","2015-08-19","116","Vital Signs","Respiratory Rate","breaths/minute",18.2949586924219,"16","20"
"02-029","Unscheduled 2.1","2.1","2015-08-19","116","Vital Signs","Systolic Blood Pressure","mmHg",116.824690224452,"90","120"
"02-029","Unscheduled 2.1","2.1","2015-08-19","116","Vital Signs","Temperature","°C",36.5859947640316,"36.6","37"
"02-029","Visit 3","3","2015-10-16","174","Vital Signs","Diastolic Blood Pressure","mmHg",70.4959824819117,"60","80"
"02-029","Visit 3","3","2015-10-16","174","Vital Signs","Heart Rate","beats/minute",54.8600396744441,"50","80"
"02-029","Visit 3","3","2015-10-16","174","Vital Signs","Respiratory Rate","breaths/minute",,"16","20"
"02-029","Visit 3","3","2015-10-16","174","Vital Signs","Systolic Blood Pressure","mmHg",98.3574419969669,"90","120"
"02-029","Visit 3","3","2015-10-16","174","Vital Signs","Temperature","°C",36.9701668019987,"36.6","37"
"02-029","Visit 4","4","2015-12-10","229","Vital Signs","Diastolic Blood Pressure","mmHg",73.3487959790913,"60","80"
"02-029","Visit 4","4","2015-12-10","229","Vital Signs","Heart Rate","beats/minute",73.3555079347265,"50","80"
"02-029","Visit 4","4","2015-12-10","229","Vital Signs","Respiratory Rate","breaths/minute",15.9722979296963,"16","20"
"02-029","Visit 4","4","2015-12-10","229","Vital Signs","Systolic Blood Pressure","mmHg",118.862512654651,"90","120"
"02-029","Visit 4","4","2015-12-10","229","Vital Signs","Temperature","°C",36.9720380113994,"36.6","37"
"02-029","Visit 5","5","2016-01-29","279","Vital Signs","Diastolic Blood Pressure","mmHg",75.0335933358394,"60","80"
"02-029","Visit 5","5","2016-01-29","279","Vital Signs","Heart Rate","beats/minute",54.5991105588781,"50","80"
"02-029","Visit 5","5","2016-01-29","279","Vital Signs","Respiratory Rate","breaths/minute",17.2758378616783,"16","20"
"02-029","Visit 5","5","2016-01-29","279","Vital Signs","Systolic Blood Pressure","mmHg",,"90","120"
"02-029","Visit 5","5","2016-01-29","279","Vital Signs","Temperature","°C",36.8826311554904,"36.6","37"
"03-001","Screening","0","2015-04-24","1","Vital Signs","Diastolic Blood Pressure","mmHg",54.3861271520248,"60","80"
"03-001","Screening","0","2015-04-24","1","Vital Signs","Heart Rate","beats/minute",77.6850074202,"50","80"
"03-001","Screening","0","2015-04-24","1","Vital Signs","Respiratory Rate","breaths/minute",17.623860122522,"16","20"
"03-001","Screening","0","2015-04-24","1","Vital Signs","Systolic Blood Pressure","mmHg",120.341302527439,"90","120"
"03-001","Screening","0","2015-04-24","1","Vital Signs","Temperature","°C",37.0317769718013,"36.6","37"
"03-001","Early Termination","6.9","2015-05-15","22","Vital Signs","Diastolic Blood Pressure","mmHg",84.0348052402664,"60","80"
"03-001","Early Termination","6.9","2015-05-15","22","Vital Signs","Heart Rate","beats/minute",79.6232488412858,"50","80"
"03-001","Early Termination","6.9","2015-05-15","22","Vital Signs","Respiratory Rate","breaths/minute",19.5686963808592,"16","20"
"03-001","Early Termination","6.9","2015-05-15","22","Vital Signs","Systolic Blood Pressure","mmHg",78.7786889649617,"90","120"
"03-001","Early Termination","6.9","2015-05-15","22","Vital Signs","Temperature","°C",36.9611672358444,"36.6","37"
"03-002","Screening","0","2015-09-02","1","Vital Signs","Diastolic Blood Pressure","mmHg",73.7618050237481,"60","80"
"03-002","Screening","0","2015-09-02","1","Vital Signs","Heart Rate","beats/minute",67.6747967556514,"50","80"
"03-002","Screening","0","2015-09-02","1","Vital Signs","Respiratory Rate","breaths/minute",,"16","20"
"03-002","Screening","0","2015-09-02","1","Vital Signs","Systolic Blood Pressure","mmHg",123.729019763726,"90","120"
"03-002","Screening","0","2015-09-02","1","Vital Signs","Temperature","°C",36.9760640750379,"36.6","37"
"03-002","Visit 1","1","2015-10-31","60","Vital Signs","Diastolic Blood Pressure","mmHg",,"60","80"
"03-002","Visit 1","1","2015-10-31","60","Vital Signs","Heart Rate","beats/minute",65.0669688624052,"50","80"
"03-002","Visit 1","1","2015-10-31","60","Vital Signs","Respiratory Rate","breaths/minute",18.6936124774745,"16","20"
"03-002","Visit 1","1","2015-10-31","60","Vital Signs","Systolic Blood Pressure","mmHg",127.081527436882,"90","120"
"03-002","Visit 1","1","2015-10-31","60","Vital Signs","Temperature","°C",36.6719306582058,"36.6","37"
"03-002","Unscheduled 1.1","1.1","2015-11-08","68","Vital Signs","Diastolic Blood Pressure","mmHg",73.7108561138901,"60","80"
"03-002","Unscheduled 1.1","1.1","2015-11-08","68","Vital Signs","Heart Rate","beats/minute",71.8174698551912,"50","80"
"03-002","Unscheduled 1.1","1.1","2015-11-08","68","Vital Signs","Respiratory Rate","breaths/minute",18.6421630091966,"16","20"
"03-002","Unscheduled 1.1","1.1","2015-11-08","68","Vital Signs","Systolic Blood Pressure","mmHg",121.489442195755,"90","120"
"03-002","Unscheduled 1.1","1.1","2015-11-08","68","Vital Signs","Temperature","°C",,"36.6","37"
"03-002","Visit 2","2","2015-12-22","112","Vital Signs","Diastolic Blood Pressure","mmHg",82.1373813048996,"60","80"
"03-002","Visit 2","2","2015-12-22","112","Vital Signs","Heart Rate","beats/minute",65.1096327410836,"50","80"
"03-002","Visit 2","2","2015-12-22","112","Vital Signs","Respiratory Rate","breaths/minute",18.2675127889497,"16","20"
"03-002","Visit 2","2","2015-12-22","112","Vital Signs","Systolic Blood Pressure","mmHg",115.659504666595,"90","120"
"03-002","Visit 2","2","2015-12-22","112","Vital Signs","Temperature","°C",37.3463936033711,"36.6","37"
"03-002","Visit 3","3","2016-02-22","174","Vital Signs","Diastolic Blood Pressure","mmHg",75.9320373492863,"60","80"
"03-002","Visit 3","3","2016-02-22","174","Vital Signs","Heart Rate","beats/minute",56.806568075975,"50","80"
"03-002","Visit 3","3","2016-02-22","174","Vital Signs","Respiratory Rate","breaths/minute",,"16","20"
"03-002","Visit 3","3","2016-02-22","174","Vital Signs","Systolic Blood Pressure","mmHg",98.0691499075239,"90","120"
"03-002","Visit 3","3","2016-02-22","174","Vital Signs","Temperature","°C",36.8334869405427,"36.6","37"
"03-002","Visit 4","4","2016-04-07","219","Vital Signs","Diastolic Blood Pressure","mmHg",61.3045349173763,"60","80"
"03-002","Visit 4","4","2016-04-07","219","Vital Signs","Heart Rate","beats/minute",98.9358321685306,"50","80"
"03-002","Visit 4","4","2016-04-07","219","Vital Signs","Respiratory Rate","breaths/minute",17.4124932371923,"16","20"
"03-002","Visit 4","4","2016-04-07","219","Vital Signs","Systolic Blood Pressure","mmHg",113.935692538324,"90","120"
"03-002","Visit 4","4","2016-04-07","219","Vital Signs","Temperature","°C",36.7625316164077,"36.6","37"
"03-002","Visit 5","5","2016-06-10","283","Vital Signs","Diastolic Blood Pressure","mmHg",79.4365906129578,"60","80"
"03-002","Visit 5","5","2016-06-10","283","Vital Signs","Heart Rate","beats/minute",85.7183248347772,"50","80"
"03-002","Visit 5","5","2016-06-10","283","Vital Signs","Respiratory Rate","breaths/minute",15.4398929052942,"16","20"
"03-002","Visit 5","5","2016-06-10","283","Vital Signs","Systolic Blood Pressure","mmHg",,"90","120"
"03-002","Visit 5","5","2016-06-10","283","Vital Signs","Temperature","°C",36.8630253527009,"36.6","37"
"03-002","Visit 6","6","2016-08-03","337","Vital Signs","Diastolic Blood Pressure","mmHg",54.2002993733882,"60","80"
"03-002","Visit 6","6","2016-08-03","337","Vital Signs","Heart Rate","beats/minute",43.3183699407352,"50","80"
"03-002","Visit 6","6","2016-08-03","337","Vital Signs","Respiratory Rate","breaths/minute",16.9183503412332,"16","20"
"03-002","Visit 6","6","2016-08-03","337","Vital Signs","Systolic Blood Pressure","mmHg",90.3584619073994,"90","120"
"03-002","Visit 6","6","2016-08-03","337","Vital Signs","Temperature","°C",36.5985375538553,"36.6","37"
"03-002","End of Study","7","2016-09-04","369","Vital Signs","Diastolic Blood Pressure","mmHg",62.9477886225666,"60","80"
"03-002","End of Study","7","2016-09-04","369","Vital Signs","Heart Rate","beats/minute",68.3509026500929,"50","80"
"03-002","End of Study","7","2016-09-04","369","Vital Signs","Respiratory Rate","breaths/minute",19.6543606761781,"16","20"
"03-002","End of Study","7","2016-09-04","369","Vital Signs","Systolic Blood Pressure","mmHg",,"90","120"
"03-002","End of Study","7","2016-09-04","369","Vital Signs","Temperature","°C",36.5630270651641,"36.6","37"
"03-003","Screening","0","2015-05-26","1","Vital Signs","Diastolic Blood Pressure","mmHg",82.2574410792077,"60","80"
"03-003","Screening","0","2015-05-26","1","Vital Signs","Heart Rate","beats/minute",80.5906308054619,"50","80"
"03-003","Screening","0","2015-05-26","1","Vital Signs","Respiratory Rate","breaths/minute",16.3751386553207,"16","20"
"03-003","Screening","0","2015-05-26","1","Vital Signs","Systolic Blood Pressure","mmHg",90.3667479669366,"90","120"
"03-003","Screening","0","2015-05-26","1","Vital Signs","Temperature","°C",36.6149683788,"36.6","37"
"03-003","Visit 1","1","2015-07-17","53","Vital Signs","Diastolic Blood Pressure","mmHg",,"60","80"
"03-003","Visit 1","1","2015-07-17","53","Vital Signs","Heart Rate","beats/minute",57.6602657286158,"50","80"
"03-003","Visit 1","1","2015-07-17","53","Vital Signs","Respiratory Rate","breaths/minute",16.0154355667917,"16","20"
"03-003","Visit 1","1","2015-07-17","53","Vital Signs","Systolic Blood Pressure","mmHg",83.7844157379597,"90","120"
"03-003","Visit 1","1","2015-07-17","53","Vital Signs","Temperature","°C",37.1750557857393,"36.6","37"
"03-003","Visit 2","2","2015-09-12","110","Vital Signs","Diastolic Blood Pressure","mmHg",62.7533796199465,"60","80"
"03-003","Visit 2","2","2015-09-12","110","Vital Signs","Heart Rate","beats/minute",64.876251086798,"50","80"
"03-003","Visit 2","2","2015-09-12","110","Vital Signs","Respiratory Rate","breaths/minute",15.3259206273923,"16","20"
"03-003","Visit 2","2","2015-09-12","110","Vital Signs","Systolic Blood Pressure","mmHg",89.5014447737087,"90","120"
"03-003","Visit 2","2","2015-09-12","110","Vital Signs","Temperature","°C",36.9030567954134,"36.6","37"
"03-003","Visit 3","3","2015-11-05","164","Vital Signs","Diastolic Blood Pressure","mmHg",91.1815839708242,"60","80"
"03-003","Visit 3","3","2015-11-05","164","Vital Signs","Heart Rate","beats/minute",63.5278427865974,"50","80"
"03-003","Visit 3","3","2015-11-05","164","Vital Signs","Respiratory Rate","breaths/minute",,"16","20"
"03-003","Visit 3","3","2015-11-05","164","Vital Signs","Systolic Blood Pressure","mmHg",132.310109396231,"90","120"
"03-003","Visit 3","3","2015-11-05","164","Vital Signs","Temperature","°C",37.1003405028743,"36.6","37"
"03-003","Visit 4","4","2016-01-11","231","Vital Signs","Diastolic Blood Pressure","mmHg",78.7214152335235,"60","80"
"03-003","Visit 4","4","2016-01-11","231","Vital Signs","Heart Rate","beats/minute",53.8901140888309,"50","80"
"03-003","Visit 4","4","2016-01-11","231","Vital Signs","Respiratory Rate","breaths/minute",18.2050930619919,"16","20"
"03-003","Visit 4","4","2016-01-11","231","Vital Signs","Systolic Blood Pressure","mmHg",87.4404126532106,"90","120"
"03-003","Visit 4","4","2016-01-11","231","Vital Signs","Temperature","°C",36.8156783753093,"36.6","37"
"03-004","Screening","0","2015-12-03","1","Vital Signs","Diastolic Blood Pressure","mmHg",62.1606871905291,"60","80"
"03-004","Screening","0","2015-12-03","1","Vital Signs","Heart Rate","beats/minute",66.9301871356287,"50","80"
"03-004","Screening","0","2015-12-03","1","Vital Signs","Respiratory Rate","breaths/minute",21.0583180127772,"16","20"
"03-004","Screening","0","2015-12-03","1","Vital Signs","Systolic Blood Pressure","mmHg",98.6800977676217,"90","120"
"03-004","Screening","0","2015-12-03","1","Vital Signs","Temperature","°C",37.0986859909266,"36.6","37"
"03-004","Visit 1","1","2016-02-01","61","Vital Signs","Diastolic Blood Pressure","mmHg",,"60","80"
"03-004","Visit 1","1","2016-02-01","61","Vital Signs","Heart Rate","beats/minute",77.8335759745956,"50","80"
"03-004","Visit 1","1","2016-02-01","61","Vital Signs","Respiratory Rate","breaths/minute",17.219005058864,"16","20"
"03-004","Visit 1","1","2016-02-01","61","Vital Signs","Systolic Blood Pressure","mmHg",91.6605557610832,"90","120"
"03-004","Visit 1","1","2016-02-01","61","Vital Signs","Temperature","°C",36.8394564334491,"36.6","37"
"03-004","Unscheduled 1.1","1.1","2016-02-09","69","Vital Signs","Diastolic Blood Pressure","mmHg",79.36729738886,"60","80"
"03-004","Unscheduled 1.1","1.1","2016-02-09","69","Vital Signs","Heart Rate","beats/minute",79.7049684223753,"50","80"
"03-004","Unscheduled 1.1","1.1","2016-02-09","69","Vital Signs","Respiratory Rate","breaths/minute",18.8384466622405,"16","20"
"03-004","Unscheduled 1.1","1.1","2016-02-09","69","Vital Signs","Systolic Blood Pressure","mmHg",88.1813868478708,"90","120"
"03-004","Unscheduled 1.1","1.1","2016-02-09","69","Vital Signs","Temperature","°C",36.671875041005,"36.6","37"
"03-004","Visit 2","2","2016-03-29","118","Vital Signs","Diastolic Blood Pressure","mmHg",81.8005539460137,"60","80"
"03-004","Visit 2","2","2016-03-29","118","Vital Signs","Heart Rate","beats/minute",51.6366506263477,"50","80"
"03-004","Visit 2","2","2016-03-29","118","Vital Signs","Respiratory Rate","breaths/minute",16.4204448337979,"16","20"
"03-004","Visit 2","2","2016-03-29","118","Vital Signs","Systolic Blood Pressure","mmHg",112.728206140453,"90","120"
"03-004","Visit 2","2","2016-03-29","118","Vital Signs","Temperature","°C",36.525234835963,"36.6","37"
"03-004","Visit 3","3","2016-05-20","170","Vital Signs","Diastolic Blood Pressure","mmHg",71.5993423558583,"60","80"
"03-004","Visit 3","3","2016-05-20","170","Vital Signs","Heart Rate","beats/minute",75.0395741656172,"50","80"
"03-004","Visit 3","3","2016-05-20","170","Vital Signs","Respiratory Rate","breaths/minute",,"16","20"
"03-004","Visit 3","3","2016-05-20","170","Vital Signs","Systolic Blood Pressure","mmHg",102.662641156088,"90","120"
"03-004","Visit 3","3","2016-05-20","170","Vital Signs","Temperature","°C",36.6343820308669,"36.6","37"
"03-004","Visit 4","4","2016-07-13","224","Vital Signs","Diastolic Blood Pressure","mmHg",71.2745710088948,"60","80"
"03-004","Visit 4","4","2016-07-13","224","Vital Signs","Heart Rate","beats/minute",32.7898973470669,"50","80"
"03-004","Visit 4","4","2016-07-13","224","Vital Signs","Respiratory Rate","breaths/minute",19.6649248025453,"16","20"
"03-004","Visit 4","4","2016-07-13","224","Vital Signs","Systolic Blood Pressure","mmHg",122.291636341568,"90","120"
"03-004","Visit 4","4","2016-07-13","224","Vital Signs","Temperature","°C",36.6859261653463,"36.6","37"
"03-004","Visit 5","5","2016-09-05","278","Vital Signs","Diastolic Blood Pressure","mmHg",67.4960310418403,"60","80"
"03-004","Visit 5","5","2016-09-05","278","Vital Signs","Heart Rate","beats/minute",57.558602261562,"50","80"
"03-004","Visit 5","5","2016-09-05","278","Vital Signs","Respiratory Rate","breaths/minute",19.4228624457616,"16","20"
"03-004","Visit 5","5","2016-09-05","278","Vital Signs","Systolic Blood Pressure","mmHg",,"90","120"
"03-004","Visit 5","5","2016-09-05","278","Vital Signs","Temperature","°C",36.8593365665097,"36.6","37"
"03-004","Visit 6","6","2016-10-26","329","Vital Signs","Diastolic Blood Pressure","mmHg",84.3477837376006,"60","80"
"03-004","Visit 6","6","2016-10-26","329","Vital Signs","Heart Rate","beats/minute",52.4017487290108,"50","80"
"03-004","Visit 6","6","2016-10-26","329","Vital Signs","Respiratory Rate","breaths/minute",18.6042781422445,"16","20"
"03-004","Visit 6","6","2016-10-26","329","Vital Signs","Systolic Blood Pressure","mmHg",104.151602779383,"90","120"
"03-004","Visit 6","6","2016-10-26","329","Vital Signs","Temperature","°C",36.6902129830979,"36.6","37"
"03-004","End of Study","7","2016-12-10","374","Vital Signs","Diastolic Blood Pressure","mmHg",75.8607726877486,"60","80"
"03-004","End of Study","7","2016-12-10","374","Vital Signs","Heart Rate","beats/minute",50.9527471478956,"50","80"
"03-004","End of Study","7","2016-12-10","374","Vital Signs","Respiratory Rate","breaths/minute",17.4553438164764,"16","20"
"03-004","End of Study","7","2016-12-10","374","Vital Signs","Systolic Blood Pressure","mmHg",,"90","120"
"03-004","End of Study","7","2016-12-10","374","Vital Signs","Temperature","°C",36.9524036293038,"36.6","37"
"03-005","Screening","0","2015-04-15","1","Vital Signs","Diastolic Blood Pressure","mmHg",56.6206149200075,"60","80"
"03-005","Screening","0","2015-04-15","1","Vital Signs","Heart Rate","beats/minute",45.7119156036294,"50","80"
"03-005","Screening","0","2015-04-15","1","Vital Signs","Respiratory Rate","breaths/minute",19.565192704043,"16","20"
"03-005","Screening","0","2015-04-15","1","Vital Signs","Systolic Blood Pressure","mmHg",99.3130359463428,"90","120"
"03-005","Screening","0","2015-04-15","1","Vital Signs","Temperature","°C",36.9104734012238,"36.6","37"
"03-005","Unscheduled 0.1","0.1","2015-04-23","9","Vital Signs","Diastolic Blood Pressure","mmHg",,"60","80"
"03-005","Unscheduled 0.1","0.1","2015-04-23","9","Vital Signs","Heart Rate","beats/minute",96.0375062865343,"50","80"
"03-005","Unscheduled 0.1","0.1","2015-04-23","9","Vital Signs","Respiratory Rate","breaths/minute",14.5207231863762,"16","20"
"03-005","Unscheduled 0.1","0.1","2015-04-23","9","Vital Signs","Systolic Blood Pressure","mmHg",97.6249704401435,"90","120"
"03-005","Unscheduled 0.1","0.1","2015-04-23","9","Vital Signs","Temperature","°C",36.8740436129928,"36.6","37"
"03-005","Visit 1","1","2015-06-14","61","Vital Signs","Diastolic Blood Pressure","mmHg",,"60","80"
"03-005","Visit 1","1","2015-06-14","61","Vital Signs","Heart Rate","beats/minute",87.2942798530156,"50","80"
"03-005","Visit 1","1","2015-06-14","61","Vital Signs","Respiratory Rate","breaths/minute",16.7763571867569,"16","20"
"03-005","Visit 1","1","2015-06-14","61","Vital Signs","Systolic Blood Pressure","mmHg",120.274580442285,"90","120"
"03-005","Visit 1","1","2015-06-14","61","Vital Signs","Temperature","°C",37.1610276412951,"36.6","37"
"03-005","Visit 2","2","2015-07-31","108","Vital Signs","Diastolic Blood Pressure","mmHg",76.6316759439675,"60","80"
"03-005","Visit 2","2","2015-07-31","108","Vital Signs","Heart Rate","beats/minute",41.8408423121292,"50","80"
"03-005","Visit 2","2","2015-07-31","108","Vital Signs","Respiratory Rate","breaths/minute",17.7413065482431,"16","20"
"03-005","Visit 2","2","2015-07-31","108","Vital Signs","Systolic Blood Pressure","mmHg",122.53594892799,"90","120"
"03-005","Visit 2","2","2015-07-31","108","Vital Signs","Temperature","°C",36.8086414724492,"36.6","37"
"03-006","Screening","0","2015-05-24","1","Vital Signs","Diastolic Blood Pressure","mmHg",85.7080927492807,"60","80"
"03-006","Screening","0","2015-05-24","1","Vital Signs","Heart Rate","beats/minute",43.7701098874587,"50","80"
"03-006","Screening","0","2015-05-24","1","Vital Signs","Respiratory Rate","breaths/minute",18.8308323016272,"16","20"
"03-006","Screening","0","2015-05-24","1","Vital Signs","Systolic Blood Pressure","mmHg",109.784806716749,"90","120"
"03-006","Screening","0","2015-05-24","1","Vital Signs","Temperature","°C",36.6167296835658,"36.6","37"
"03-006","Visit 1","1","2015-07-13","51","Vital Signs","Diastolic Blood Pressure","mmHg",,"60","80"
"03-006","Visit 1","1","2015-07-13","51","Vital Signs","Heart Rate","beats/minute",79.6348571454646,"50","80"
"03-006","Visit 1","1","2015-07-13","51","Vital Signs","Respiratory Rate","breaths/minute",18.1889643653325,"16","20"
"03-006","Visit 1","1","2015-07-13","51","Vital Signs","Systolic Blood Pressure","mmHg",91.1667302444792,"90","120"
"03-006","Visit 1","1","2015-07-13","51","Vital Signs","Temperature","°C",36.8338323524028,"36.6","37"
"03-007","Screening","0","2015-08-18","1","Vital Signs","Diastolic Blood Pressure","mmHg",72.5775121969543,"60","80"
"03-007","Screening","0","2015-08-18","1","Vital Signs","Heart Rate","beats/minute",28.6187318323555,"50","80"
"03-007","Screening","0","2015-08-18","1","Vital Signs","Respiratory Rate","breaths/minute",19.7410144261315,"16","20"
"03-007","Screening","0","2015-08-18","1","Vital Signs","Systolic Blood Pressure","mmHg",101.973092484047,"90","120"
"03-007","Screening","0","2015-08-18","1","Vital Signs","Temperature","°C",36.7574785655292,"36.6","37"
"03-007","Visit 1","1","2015-10-11","55","Vital Signs","Diastolic Blood Pressure","mmHg",,"60","80"
"03-007","Visit 1","1","2015-10-11","55","Vital Signs","Heart Rate","beats/minute",69.1889744118349,"50","80"
"03-007","Visit 1","1","2015-10-11","55","Vital Signs","Respiratory Rate","breaths/minute",21.9379648713522,"16","20"
"03-007","Visit 1","1","2015-10-11","55","Vital Signs","Systolic Blood Pressure","mmHg",119.358322131405,"90","120"
"03-007","Visit 1","1","2015-10-11","55","Vital Signs","Temperature","°C",37.2574514271983,"36.6","37"
"03-007","Visit 2","2","2015-12-01","106","Vital Signs","Diastolic Blood Pressure","mmHg",65.9733847799615,"60","80"
"03-007","Visit 2","2","2015-12-01","106","Vital Signs","Heart Rate","beats/minute",40.4857441663895,"50","80"
"03-007","Visit 2","2","2015-12-01","106","Vital Signs","Respiratory Rate","breaths/minute",17.2520986907051,"16","20"
"03-007","Visit 2","2","2015-12-01","106","Vital Signs","Systolic Blood Pressure","mmHg",93.4371055384524,"90","120"
"03-007","Visit 2","2","2015-12-01","106","Vital Signs","Temperature","°C",36.7231237212785,"36.6","37"
"03-007","Visit 3","3","2016-02-06","173","Vital Signs","Diastolic Blood Pressure","mmHg",57.7187055339063,"60","80"
"03-007","Visit 3","3","2016-02-06","173","Vital Signs","Heart Rate","beats/minute",66.1249229271847,"50","80"
"03-007","Visit 3","3","2016-02-06","173","Vital Signs","Respiratory Rate","breaths/minute",,"16","20"
"03-007","Visit 3","3","2016-02-06","173","Vital Signs","Systolic Blood Pressure","mmHg",106.151075446923,"90","120"
"03-007","Visit 3","3","2016-02-06","173","Vital Signs","Temperature","°C",,"36.6","37"
"03-007","Visit 5","5","2016-05-28","285","Vital Signs","Diastolic Blood Pressure","mmHg",94.9717208534322,"60","80"
"03-007","Visit 5","5","2016-05-28","285","Vital Signs","Heart Rate","beats/minute",55.4663724235806,"50","80"
"03-007","Visit 5","5","2016-05-28","285","Vital Signs","Respiratory Rate","breaths/minute",20.9279538943729,"16","20"
"03-007","Visit 5","5","2016-05-28","285","Vital Signs","Systolic Blood Pressure","mmHg",,"90","120"
"03-007","Visit 5","5","2016-05-28","285","Vital Signs","Temperature","°C",36.8651935667635,"36.6","37"
"03-007","Visit 6","6","2016-07-19","337","Vital Signs","Diastolic Blood Pressure","mmHg",67.1269550263441,"60","80"
"03-007","Visit 6","6","2016-07-19","337","Vital Signs","Heart Rate","beats/minute",58.9802887384226,"50","80"
"03-007","Visit 6","6","2016-07-19","337","Vital Signs","Respiratory Rate","breaths/minute",18.0603408625983,"16","20"
"03-007","Visit 6","6","2016-07-19","337","Vital Signs","Systolic Blood Pressure","mmHg",90.7673221206272,"90","120"
"03-007","Visit 6","6","2016-07-19","337","Vital Signs","Temperature","°C",36.9370181498585,"36.6","37"
"03-007","End of Study","7","2016-08-16","365","Vital Signs","Diastolic Blood Pressure","mmHg",71.7019312655565,"60","80"
"03-007","End of Study","7","2016-08-16","365","Vital Signs","Heart Rate","beats/minute",79.258526592332,"50","80"
"03-007","End of Study","7","2016-08-16","365","Vital Signs","Respiratory Rate","breaths/minute",17.0274173619398,"16","20"
"03-007","End of Study","7","2016-08-16","365","Vital Signs","Systolic Blood Pressure","mmHg",,"90","120"
"03-007","End of Study","7","2016-08-16","365","Vital Signs","Temperature","°C",36.9737149816461,"36.6","37"
"03-008","Screening","0","2015-03-08","1","Vital Signs","Diastolic Blood Pressure","mmHg",73.0636769207425,"60","80"
"03-008","Screening","0","2015-03-08","1","Vital Signs","Heart Rate","beats/minute",71.7568034753654,"50","80"
"03-008","Screening","0","2015-03-08","1","Vital Signs","Respiratory Rate","breaths/minute",18.6431705695886,"16","20"
"03-008","Screening","0","2015-03-08","1","Vital Signs","Systolic Blood Pressure","mmHg",122.09322733926,"90","120"
"03-008","Screening","0","2015-03-08","1","Vital Signs","Temperature","°C",36.3925212770675,"36.6","37"
"03-008","Visit 1","1","2015-04-25","49","Vital Signs","Diastolic Blood Pressure","mmHg",,"60","80"
"03-008","Visit 1","1","2015-04-25","49","Vital Signs","Heart Rate","beats/minute",38.7094443317689,"50","80"
"03-008","Visit 1","1","2015-04-25","49","Vital Signs","Respiratory Rate","breaths/minute",19.9177585989225,"16","20"
"03-008","Visit 1","1","2015-04-25","49","Vital Signs","Systolic Blood Pressure","mmHg",101.818641402229,"90","120"
"03-008","Visit 1","1","2015-04-25","49","Vital Signs","Temperature","°C",36.6984321918278,"36.6","37"
"03-008","Unscheduled 1.1","1.1","2015-05-03","57","Vital Signs","Diastolic Blood Pressure","mmHg",62.6874708674556,"60","80"
"03-008","Unscheduled 1.1","1.1","2015-05-03","57","Vital Signs","Heart Rate","beats/minute",86.6504963481665,"50","80"
"03-008","Unscheduled 1.1","1.1","2015-05-03","57","Vital Signs","Respiratory Rate","breaths/minute",14.756949640955,"16","20"
"03-008","Unscheduled 1.1","1.1","2015-05-03","57","Vital Signs","Systolic Blood Pressure","mmHg",100.758875116893,"90","120"
"03-008","Unscheduled 1.1","1.1","2015-05-03","57","Vital Signs","Temperature","°C",36.51133666802,"36.6","37"
"03-008","Visit 2","2","2015-06-26","111","Vital Signs","Diastolic Blood Pressure","mmHg",74.3611731819408,"60","80"
"03-008","Visit 2","2","2015-06-26","111","Vital Signs","Heart Rate","beats/minute",60.3641806511621,"50","80"
"03-008","Visit 2","2","2015-06-26","111","Vital Signs","Respiratory Rate","breaths/minute",19.5083108399889,"16","20"
"03-008","Visit 2","2","2015-06-26","111","Vital Signs","Systolic Blood Pressure","mmHg",85.0743906880212,"90","120"
"03-008","Visit 2","2","2015-06-26","111","Vital Signs","Temperature","°C",36.9728440494665,"36.6","37"
"03-008","Unscheduled 2.1","2.1","2015-07-04","119","Vital Signs","Diastolic Blood Pressure","mmHg",65.4527675413427,"60","80"
"03-008","Unscheduled 2.1","2.1","2015-07-04","119","Vital Signs","Heart Rate","beats/minute",58.2683390885966,"50","80"
"03-008","Unscheduled 2.1","2.1","2015-07-04","119","Vital Signs","Respiratory Rate","breaths/minute",17.8178950305616,"16","20"
"03-008","Unscheduled 2.1","2.1","2015-07-04","119","Vital Signs","Systolic Blood Pressure","mmHg",98.8194860686803,"90","120"
"03-008","Unscheduled 2.1","2.1","2015-07-04","119","Vital Signs","Temperature","°C",36.6898815266408,"36.6","37"
"03-008","Visit 3","3","2015-08-15","161","Vital Signs","Diastolic Blood Pressure","mmHg",57.0900288283635,"60","80"
"03-008","Visit 3","3","2015-08-15","161","Vital Signs","Heart Rate","beats/minute",45.0369184947715,"50","80"
"03-008","Visit 3","3","2015-08-15","161","Vital Signs","Respiratory Rate","breaths/minute",,"16","20"
"03-008","Visit 3","3","2015-08-15","161","Vital Signs","Systolic Blood Pressure","mmHg",132.262560044184,"90","120"
"03-008","Visit 3","3","2015-08-15","161","Vital Signs","Temperature","°C",36.6274255233884,"36.6","37"
"03-008","Unscheduled 3.1","3.1","2015-08-23","169","Vital Signs","Diastolic Blood Pressure","mmHg",59.4702916347922,"60","80"
"03-008","Unscheduled 3.1","3.1","2015-08-23","169","Vital Signs","Heart Rate","beats/minute",70.7091439470626,"50","80"
"03-008","Unscheduled 3.1","3.1","2015-08-23","169","Vital Signs","Respiratory Rate","breaths/minute",15.6301974268386,"16","20"
"03-008","Unscheduled 3.1","3.1","2015-08-23","169","Vital Signs","Systolic Blood Pressure","mmHg",108.650004454025,"90","120"
"03-008","Unscheduled 3.1","3.1","2015-08-23","169","Vital Signs","Temperature","°C",36.7572601258956,"36.6","37"
"03-008","Visit 4","4","2015-10-19","226","Vital Signs","Diastolic Blood Pressure","mmHg",57.567683832551,"60","80"
"03-008","Visit 4","4","2015-10-19","226","Vital Signs","Heart Rate","beats/minute",61.835804592447,"50","80"
"03-008","Visit 4","4","2015-10-19","226","Vital Signs","Respiratory Rate","breaths/minute",19.0062183515045,"16","20"
"03-008","Visit 4","4","2015-10-19","226","Vital Signs","Systolic Blood Pressure","mmHg",125.567068628189,"90","120"
"03-008","Visit 4","4","2015-10-19","226","Vital Signs","Temperature","°C",36.8132684615441,"36.6","37"
"03-008","Visit 5","5","2015-12-16","284","Vital Signs","Diastolic Blood Pressure","mmHg",71.4983077111772,"60","80"
"03-008","Visit 5","5","2015-12-16","284","Vital Signs","Heart Rate","beats/minute",74.5889478651987,"50","80"
"03-008","Visit 5","5","2015-12-16","284","Vital Signs","Respiratory Rate","breaths/minute",16.3236930758247,"16","20"
"03-008","Visit 5","5","2015-12-16","284","Vital Signs","Systolic Blood Pressure","mmHg",,"90","120"
"03-008","Visit 5","5","2015-12-16","284","Vital Signs","Temperature","°C",36.6604268846381,"36.6","37"
"03-009","Screening","0","2015-11-15","1","Vital Signs","Diastolic Blood Pressure","mmHg",,"60","80"
"03-009","Screening","0","2015-11-15","1","Vital Signs","Heart Rate","beats/minute",56.8789816146027,"50","80"
"03-009","Screening","0","2015-11-15","1","Vital Signs","Respiratory Rate","breaths/minute",16.4815823874599,"16","20"
"03-009","Screening","0","2015-11-15","1","Vital Signs","Systolic Blood Pressure","mmHg",,"90","120"
"03-009","Screening","0","2015-11-15","1","Vital Signs","Temperature","°C",36.6555986287232,"36.6","37"
"03-009","Visit 1","1","2016-01-04","51","Vital Signs","Diastolic Blood Pressure","mmHg",,"60","80"
"03-009","Visit 1","1","2016-01-04","51","Vital Signs","Heart Rate","beats/minute",59.2933341789132,"50","80"
"03-009","Visit 1","1","2016-01-04","51","Vital Signs","Respiratory Rate","breaths/minute",13.5776006498025,"16","20"
"03-009","Visit 1","1","2016-01-04","51","Vital Signs","Systolic Blood Pressure","mmHg",123.893816816586,"90","120"
"03-009","Visit 1","1","2016-01-04","51","Vital Signs","Temperature","°C",36.7932231060683,"36.6","37"
"03-009","Early Termination","6.9","2016-02-19","97","Vital Signs","Diastolic Blood Pressure","mmHg",83.7445225596981,"60","80"
"03-009","Early Termination","6.9","2016-02-19","97","Vital Signs","Heart Rate","beats/minute",73.9958207410896,"50","80"
"03-009","Early Termination","6.9","2016-02-19","97","Vital Signs","Respiratory Rate","breaths/minute",16.6770763593508,"16","20"
"03-009","Early Termination","6.9","2016-02-19","97","Vital Signs","Systolic Blood Pressure","mmHg",116.39953432121,"90","120"
"03-009","Early Termination","6.9","2016-02-19","97","Vital Signs","Temperature","°C",36.7352857882688,"36.6","37"
"03-010","Screening","0","2015-02-07","1","Vital Signs","Diastolic Blood Pressure","mmHg",74.2761199706348,"60","80"
"03-010","Screening","0","2015-02-07","1","Vital Signs","Heart Rate","beats/minute",66.6292574048769,"50","80"
"03-010","Screening","0","2015-02-07","1","Vital Signs","Respiratory Rate","breaths/minute",20.3892507667101,"16","20"
"03-010","Screening","0","2015-02-07","1","Vital Signs","Systolic Blood Pressure","mmHg",92.4009784028218,"90","120"
"03-010","Screening","0","2015-02-07","1","Vital Signs","Temperature","°C",36.9029163568226,"36.6","37"
"03-010","Visit 1","1","2015-04-06","59","Vital Signs","Diastolic Blood Pressure","mmHg",,"60","80"
"03-010","Visit 1","1","2015-04-06","59","Vital Signs","Heart Rate","beats/minute",97.9019117974848,"50","80"
"03-010","Visit 1","1","2015-04-06","59","Vital Signs","Respiratory Rate","breaths/minute",18.1014001716747,"16","20"
"03-010","Visit 1","1","2015-04-06","59","Vital Signs","Systolic Blood Pressure","mmHg",111.104269508039,"90","120"
"03-010","Visit 1","1","2015-04-06","59","Vital Signs","Temperature","°C",36.629788630821,"36.6","37"
"03-010","Visit 2","2","2015-05-28","111","Vital Signs","Diastolic Blood Pressure","mmHg",63.4516346460119,"60","80"
"03-010","Visit 2","2","2015-05-28","111","Vital Signs","Heart Rate","beats/minute",69.970014438459,"50","80"
"03-010","Visit 2","2","2015-05-28","111","Vital Signs","Respiratory Rate","breaths/minute",16.9469739710187,"16","20"
"03-010","Visit 2","2","2015-05-28","111","Vital Signs","Systolic Blood Pressure","mmHg",86.104838951049,"90","120"
"03-010","Visit 2","2","2015-05-28","111","Vital Signs","Temperature","°C",36.8738160307807,"36.6","37"
"03-010","Visit 3","3","2015-07-27","171","Vital Signs","Diastolic Blood Pressure","mmHg",74.6439637133131,"60","80"
"03-010","Visit 3","3","2015-07-27","171","Vital Signs","Heart Rate","beats/minute",65.2320723145723,"50","80"
"03-010","Visit 3","3","2015-07-27","171","Vital Signs","Respiratory Rate","breaths/minute",,"16","20"
"03-010","Visit 3","3","2015-07-27","171","Vital Signs","Systolic Blood Pressure","mmHg",105.298668762527,"90","120"
"03-010","Visit 3","3","2015-07-27","171","Vital Signs","Temperature","°C",36.1132577582794,"36.6","37"
"03-010","Visit 4","4","2015-09-11","217","Vital Signs","Diastolic Blood Pressure","mmHg",49.4496683423028,"60","80"
"03-010","Visit 4","4","2015-09-11","217","Vital Signs","Heart Rate","beats/minute",,"50","80"
"03-010","Visit 4","4","2015-09-11","217","Vital Signs","Respiratory Rate","breaths/minute",12.6943211757689,"16","20"
"03-010","Visit 4","4","2015-09-11","217","Vital Signs","Systolic Blood Pressure","mmHg",101.60190173143,"90","120"
"03-010","Visit 4","4","2015-09-11","217","Vital Signs","Temperature","°C",36.9995167304042,"36.6","37"
"03-010","Visit 5","5","2015-11-09","276","Vital Signs","Diastolic Blood Pressure","mmHg",61.338668687294,"60","80"
"03-010","Visit 5","5","2015-11-09","276","Vital Signs","Heart Rate","beats/minute",56.3364057950491,"50","80"
"03-010","Visit 5","5","2015-11-09","276","Vital Signs","Respiratory Rate","breaths/minute",17.4006561215837,"16","20"
"03-010","Visit 5","5","2015-11-09","276","Vital Signs","Systolic Blood Pressure","mmHg",,"90","120"
"03-010","Visit 5","5","2015-11-09","276","Vital Signs","Temperature","°C",36.995189255462,"36.6","37"
"03-010","Unscheduled 5.1","5.1","2015-11-17","284","Vital Signs","Diastolic Blood Pressure","mmHg",68.5995936945897,"60","80"
"03-010","Unscheduled 5.1","5.1","2015-11-17","284","Vital Signs","Heart Rate","beats/minute",75.6560468076879,"50","80"
"03-010","Unscheduled 5.1","5.1","2015-11-17","284","Vital Signs","Respiratory Rate","breaths/minute",18.2358287109255,"16","20"
"03-010","Unscheduled 5.1","5.1","2015-11-17","284","Vital Signs","Systolic Blood Pressure","mmHg",118.975051920649,"90","120"
"03-010","Unscheduled 5.1","5.1","2015-11-17","284","Vital Signs","Temperature","°C",36.9923343747136,"36.6","37"
"03-010","Visit 6","6","2016-01-11","339","Vital Signs","Diastolic Blood Pressure","mmHg",76.1467463566321,"60","80"
"03-010","Visit 6","6","2016-01-11","339","Vital Signs","Heart Rate","beats/minute",74.0342259022975,"50","80"
"03-010","Visit 6","6","2016-01-11","339","Vital Signs","Respiratory Rate","breaths/minute",17.4657310767109,"16","20"
"03-010","Visit 6","6","2016-01-11","339","Vital Signs","Systolic Blood Pressure","mmHg",114.286252705046,"90","120"
"03-010","Visit 6","6","2016-01-11","339","Vital Signs","Temperature","°C",36.892360798177,"36.6","37"
"03-010","End of Study","7","2016-02-05","364","Vital Signs","Diastolic Blood Pressure","mmHg",69.6140791710249,"60","80"
"03-010","End of Study","7","2016-02-05","364","Vital Signs","Heart Rate","beats/minute",78.8251717538041,"50","80"
"03-010","End of Study","7","2016-02-05","364","Vital Signs","Respiratory Rate","breaths/minute",17.4967432580733,"16","20"
"03-010","End of Study","7","2016-02-05","364","Vital Signs","Systolic Blood Pressure","mmHg",,"90","120"
"03-010","End of Study","7","2016-02-05","364","Vital Signs","Temperature","°C",37.1353197189166,"36.6","37"
"03-011","Screening","0","2015-11-16","1","Vital Signs","Diastolic Blood Pressure","mmHg",73.6582805101562,"60","80"
"03-011","Screening","0","2015-11-16","1","Vital Signs","Heart Rate","beats/minute",73.1006929604323,"50","80"
"03-011","Screening","0","2015-11-16","1","Vital Signs","Respiratory Rate","breaths/minute",21.3702990371388,"16","20"
"03-011","Screening","0","2015-11-16","1","Vital Signs","Systolic Blood Pressure","mmHg",118.092580460591,"90","120"
"03-011","Screening","0","2015-11-16","1","Vital Signs","Temperature","°C",37.0205796193475,"36.6","37"
"03-011","Unscheduled 0.1","0.1","2015-11-24","9","Vital Signs","Diastolic Blood Pressure","mmHg",70.6655642619448,"60","80"
"03-011","Unscheduled 0.1","0.1","2015-11-24","9","Vital Signs","Heart Rate","beats/minute",68.5369459705208,"50","80"
"03-011","Unscheduled 0.1","0.1","2015-11-24","9","Vital Signs","Respiratory Rate","breaths/minute",19.8700869581044,"16","20"
"03-011","Unscheduled 0.1","0.1","2015-11-24","9","Vital Signs","Systolic Blood Pressure","mmHg",108.547739526929,"90","120"
"03-011","Unscheduled 0.1","0.1","2015-11-24","9","Vital Signs","Temperature","°C",36.9754706763456,"36.6","37"
"03-011","Visit 1","1","2016-01-04","50","Vital Signs","Diastolic Blood Pressure","mmHg",,"60","80"
"03-011","Visit 1","1","2016-01-04","50","Vital Signs","Heart Rate","beats/minute",107.077089003264,"50","80"
"03-011","Visit 1","1","2016-01-04","50","Vital Signs","Respiratory Rate","breaths/minute",19.0488583844135,"16","20"
"03-011","Visit 1","1","2016-01-04","50","Vital Signs","Systolic Blood Pressure","mmHg",111.291503828485,"90","120"
"03-011","Visit 1","1","2016-01-04","50","Vital Signs","Temperature","°C",36.7847987009022,"36.6","37"
"03-011","Early Termination","6.9","2016-01-05","51","Vital Signs","Diastolic Blood Pressure","mmHg",76.5554396184041,"60","80"
"03-011","Early Termination","6.9","2016-01-05","51","Vital Signs","Heart Rate","beats/minute",60.0284785012624,"50","80"
"03-011","Early Termination","6.9","2016-01-05","51","Vital Signs","Respiratory Rate","breaths/minute",18.148759627048,"16","20"
"03-011","Early Termination","6.9","2016-01-05","51","Vital Signs","Systolic Blood Pressure","mmHg",93.7345311013233,"90","120"
"03-011","Early Termination","6.9","2016-01-05","51","Vital Signs","Temperature","°C",36.664533751341,"36.6","37"
"03-012","Screening","0","2015-08-19","1","Vital Signs","Diastolic Blood Pressure","mmHg",62.4701131537093,"60","80"
"03-012","Screening","0","2015-08-19","1","Vital Signs","Heart Rate","beats/minute",56.2125732319786,"50","80"
"03-012","Screening","0","2015-08-19","1","Vital Signs","Respiratory Rate","breaths/minute",16.5467226192979,"16","20"
"03-012","Screening","0","2015-08-19","1","Vital Signs","Systolic Blood Pressure","mmHg",120.700477155932,"90","120"
"03-012","Screening","0","2015-08-19","1","Vital Signs","Temperature","°C",36.4896786811487,"36.6","37"
"03-012","Visit 1","1","2015-10-13","56","Vital Signs","Diastolic Blood Pressure","mmHg",,"60","80"
"03-012","Visit 1","1","2015-10-13","56","Vital Signs","Heart Rate","beats/minute",53.4384856416654,"50","80"
"03-012","Visit 1","1","2015-10-13","56","Vital Signs","Respiratory Rate","breaths/minute",14.4045063861525,"16","20"
"03-012","Visit 1","1","2015-10-13","56","Vital Signs","Systolic Blood Pressure","mmHg",129.456454751928,"90","120"
"03-012","Visit 1","1","2015-10-13","56","Vital Signs","Temperature","°C",,"36.6","37"
"03-012","Unscheduled 1.1","1.1","2015-10-21","64","Vital Signs","Diastolic Blood Pressure","mmHg",66.3985847570421,"60","80"
"03-012","Unscheduled 1.1","1.1","2015-10-21","64","Vital Signs","Heart Rate","beats/minute",81.640059435328,"50","80"
"03-012","Unscheduled 1.1","1.1","2015-10-21","64","Vital Signs","Respiratory Rate","breaths/minute",19.3614232699563,"16","20"
"03-012","Unscheduled 1.1","1.1","2015-10-21","64","Vital Signs","Systolic Blood Pressure","mmHg",115.355709455059,"90","120"
"03-012","Unscheduled 1.1","1.1","2015-10-21","64","Vital Signs","Temperature","°C",36.4683929847525,"36.6","37"
"03-012","Visit 2","2","2015-12-15","119","Vital Signs","Diastolic Blood Pressure","mmHg",62.8569187913662,"60","80"
"03-012","Visit 2","2","2015-12-15","119","Vital Signs","Heart Rate","beats/minute",57.4588989863951,"50","80"
"03-012","Visit 2","2","2015-12-15","119","Vital Signs","Respiratory Rate","breaths/minute",18.0679366231866,"16","20"
"03-012","Visit 2","2","2015-12-15","119","Vital Signs","Systolic Blood Pressure","mmHg",107.158103080192,"90","120"
"03-012","Visit 2","2","2015-12-15","119","Vital Signs","Temperature","°C",36.8373618669396,"36.6","37"
"03-012","Visit 3","3","2016-02-06","172","Vital Signs","Diastolic Blood Pressure","mmHg",60.7594143269713,"60","80"
"03-012","Visit 3","3","2016-02-06","172","Vital Signs","Heart Rate","beats/minute",50.9132201744624,"50","80"
"03-012","Visit 3","3","2016-02-06","172","Vital Signs","Respiratory Rate","breaths/minute",,"16","20"
"03-012","Visit 3","3","2016-02-06","172","Vital Signs","Systolic Blood Pressure","mmHg",95.9279436068045,"90","120"
"03-012","Visit 3","3","2016-02-06","172","Vital Signs","Temperature","°C",36.727966246059,"36.6","37"
"03-013","Screening","0","2015-10-28","1","Vital Signs","Diastolic Blood Pressure","mmHg",71.7885601450437,"60","80"
"03-013","Screening","0","2015-10-28","1","Vital Signs","Heart Rate","beats/minute",87.3253062845999,"50","80"
"03-013","Screening","0","2015-10-28","1","Vital Signs","Respiratory Rate","breaths/minute",14.5248210909694,"16","20"
"03-013","Screening","0","2015-10-28","1","Vital Signs","Systolic Blood Pressure","mmHg",88.3747087707295,"90","120"
"03-013","Screening","0","2015-10-28","1","Vital Signs","Temperature","°C",36.7501028530971,"36.6","37"
"03-013","Visit 1","1","2015-12-21","55","Vital Signs","Diastolic Blood Pressure","mmHg",,"60","80"
"03-013","Visit 1","1","2015-12-21","55","Vital Signs","Heart Rate","beats/minute",92.5808356304468,"50","80"
"03-013","Visit 1","1","2015-12-21","55","Vital Signs","Respiratory Rate","breaths/minute",17.3801667279391,"16","20"
"03-013","Visit 1","1","2015-12-21","55","Vital Signs","Systolic Blood Pressure","mmHg",85.3505211815073,"90","120"
"03-013","Visit 1","1","2015-12-21","55","Vital Signs","Temperature","°C",37.0291598632852,"36.6","37"
"03-013","Visit 2","2","2016-02-12","108","Vital Signs","Diastolic Blood Pressure","mmHg",71.0609326966954,"60","80"
"03-013","Visit 2","2","2016-02-12","108","Vital Signs","Heart Rate","beats/minute",88.0991362388109,"50","80"
"03-013","Visit 2","2","2016-02-12","108","Vital Signs","Respiratory Rate","breaths/minute",19.2279968390131,"16","20"
"03-013","Visit 2","2","2016-02-12","108","Vital Signs","Systolic Blood Pressure","mmHg",109.691938777814,"90","120"
"03-013","Visit 2","2","2016-02-12","108","Vital Signs","Temperature","°C",36.6600846884519,"36.6","37"
"03-013","Visit 3","3","2016-04-17","173","Vital Signs","Diastolic Blood Pressure","mmHg",55.6545105565764,"60","80"
"03-013","Visit 3","3","2016-04-17","173","Vital Signs","Heart Rate","beats/minute",68.3974031866543,"50","80"
"03-013","Visit 3","3","2016-04-17","173","Vital Signs","Respiratory Rate","breaths/minute",,"16","20"
"03-013","Visit 3","3","2016-04-17","173","Vital Signs","Systolic Blood Pressure","mmHg",128.039409833531,"90","120"
"03-013","Visit 3","3","2016-04-17","173","Vital Signs","Temperature","°C",36.5241129686415,"36.6","37"
"03-013","Visit 4","4","2016-05-31","217","Vital Signs","Diastolic Blood Pressure","mmHg",74.308465931209,"60","80"
"03-013","Visit 4","4","2016-05-31","217","Vital Signs","Heart Rate","beats/minute",56.9963259278171,"50","80"
"03-013","Visit 4","4","2016-05-31","217","Vital Signs","Respiratory Rate","breaths/minute",16.7367019527082,"16","20"
"03-013","Visit 4","4","2016-05-31","217","Vital Signs","Systolic Blood Pressure","mmHg",86.5922213095172,"90","120"
"03-013","Visit 4","4","2016-05-31","217","Vital Signs","Temperature","°C",36.7468243788844,"36.6","37"
"03-014","Screening","0","2015-02-06","1","Vital Signs","Diastolic Blood Pressure","mmHg",65.9731868620621,"60","80"
"03-014","Screening","0","2015-02-06","1","Vital Signs","Heart Rate","beats/minute",77.831109923027,"50","80"
"03-014","Screening","0","2015-02-06","1","Vital Signs","Respiratory Rate","breaths/minute",17.0856050223395,"16","20"
"03-014","Screening","0","2015-02-06","1","Vital Signs","Systolic Blood Pressure","mmHg",97.2331025402205,"90","120"
"03-014","Screening","0","2015-02-06","1","Vital Signs","Temperature","°C",36.8439971218116,"36.6","37"
"03-015","Screening","0","2015-07-21","1","Vital Signs","Diastolic Blood Pressure","mmHg",71.1166430109153,"60","80"
"03-015","Screening","0","2015-07-21","1","Vital Signs","Heart Rate","beats/minute",63.8647274978015,"50","80"
"03-015","Screening","0","2015-07-21","1","Vital Signs","Respiratory Rate","breaths/minute",17.6879374218318,"16","20"
"03-015","Screening","0","2015-07-21","1","Vital Signs","Systolic Blood Pressure","mmHg",81.7319098993732,"90","120"
"03-015","Screening","0","2015-07-21","1","Vital Signs","Temperature","°C",36.7672450304498,"36.6","37"
"03-015","Unscheduled 0.1","0.1","2015-07-29","9","Vital Signs","Diastolic Blood Pressure","mmHg",61.433923700617,"60","80"
"03-015","Unscheduled 0.1","0.1","2015-07-29","9","Vital Signs","Heart Rate","beats/minute",73.7062680384986,"50","80"
"03-015","Unscheduled 0.1","0.1","2015-07-29","9","Vital Signs","Respiratory Rate","breaths/minute",17.5059814862105,"16","20"
"03-015","Unscheduled 0.1","0.1","2015-07-29","9","Vital Signs","Systolic Blood Pressure","mmHg",77.7815504446612,"90","120"
"03-015","Unscheduled 0.1","0.1","2015-07-29","9","Vital Signs","Temperature","°C",36.7615553291621,"36.6","37"
"03-015","Visit 1","1","2015-09-17","59","Vital Signs","Diastolic Blood Pressure","mmHg",,"60","80"
"03-015","Visit 1","1","2015-09-17","59","Vital Signs","Heart Rate","beats/minute",72.9608462751749,"50","80"
"03-015","Visit 1","1","2015-09-17","59","Vital Signs","Respiratory Rate","breaths/minute",16.5456959441266,"16","20"
"03-015","Visit 1","1","2015-09-17","59","Vital Signs","Systolic Blood Pressure","mmHg",130.849654147852,"90","120"
"03-015","Visit 1","1","2015-09-17","59","Vital Signs","Temperature","°C",36.5511029286492,"36.6","37"
"03-015","Visit 3","3","2016-01-08","172","Vital Signs","Diastolic Blood Pressure","mmHg",,"60","80"
"03-015","Visit 3","3","2016-01-08","172","Vital Signs","Heart Rate","beats/minute",65.6517209981577,"50","80"
"03-015","Visit 3","3","2016-01-08","172","Vital Signs","Respiratory Rate","breaths/minute",,"16","20"
"03-015","Visit 3","3","2016-01-08","172","Vital Signs","Systolic Blood Pressure","mmHg",111.070113294867,"90","120"
"03-015","Visit 3","3","2016-01-08","172","Vital Signs","Temperature","°C",37.1002494571221,"36.6","37"
"03-015","Visit 4","4","2016-02-27","222","Vital Signs","Diastolic Blood Pressure","mmHg",61.2864638547613,"60","80"
"03-015","Visit 4","4","2016-02-27","222","Vital Signs","Heart Rate","beats/minute",89.5107888703838,"50","80"
"03-015","Visit 4","4","2016-02-27","222","Vital Signs","Respiratory Rate","breaths/minute",18.2021884204476,"16","20"
"03-015","Visit 4","4","2016-02-27","222","Vital Signs","Systolic Blood Pressure","mmHg",124.820429052642,"90","120"
"03-015","Visit 4","4","2016-02-27","222","Vital Signs","Temperature","°C",36.9560608307637,"36.6","37"
"03-015","Visit 5","5","2016-04-19","274","Vital Signs","Diastolic Blood Pressure","mmHg",81.0230628222496,"60","80"
"03-015","Visit 5","5","2016-04-19","274","Vital Signs","Heart Rate","beats/minute",58.9619500763624,"50","80"
"03-015","Visit 5","5","2016-04-19","274","Vital Signs","Respiratory Rate","breaths/minute",15.1397820253511,"16","20"
"03-015","Visit 5","5","2016-04-19","274","Vital Signs","Systolic Blood Pressure","mmHg",,"90","120"
"03-015","Visit 5","5","2016-04-19","274","Vital Signs","Temperature","°C",36.8698520100506,"36.6","37"
"03-015","Visit 6","6","2016-06-23","339","Vital Signs","Diastolic Blood Pressure","mmHg",75.6874943962358,"60","80"
"03-015","Visit 6","6","2016-06-23","339","Vital Signs","Heart Rate","beats/minute",63.622596743681,"50","80"
"03-015","Visit 6","6","2016-06-23","339","Vital Signs","Respiratory Rate","breaths/minute",19.4541816850027,"16","20"
"03-015","Visit 6","6","2016-06-23","339","Vital Signs","Systolic Blood Pressure","mmHg",94.5770415801137,"90","120"
"03-015","Visit 6","6","2016-06-23","339","Vital Signs","Temperature","°C",36.7898893682109,"36.6","37"
"03-015","End of Study","7","2016-07-28","374","Vital Signs","Diastolic Blood Pressure","mmHg",89.9096572993794,"60","80"
"03-015","End of Study","7","2016-07-28","374","Vital Signs","Heart Rate","beats/minute",56.7638315251178,"50","80"
"03-015","End of Study","7","2016-07-28","374","Vital Signs","Respiratory Rate","breaths/minute",18.03263377063,"16","20"
"03-015","End of Study","7","2016-07-28","374","Vital Signs","Systolic Blood Pressure","mmHg",,"90","120"
"03-015","End of Study","7","2016-07-28","374","Vital Signs","Temperature","°C",36.9384635059867,"36.6","37"
"03-016","Screening","0","2015-05-04","1","Vital Signs","Diastolic Blood Pressure","mmHg",78.7937815236888,"60","80"
"03-016","Screening","0","2015-05-04","1","Vital Signs","Heart Rate","beats/minute",67.8557671247979,"50","80"
"03-016","Screening","0","2015-05-04","1","Vital Signs","Respiratory Rate","breaths/minute",17.5676167166617,"16","20"
"03-016","Screening","0","2015-05-04","1","Vital Signs","Systolic Blood Pressure","mmHg",98.43761653064,"90","120"
"03-016","Screening","0","2015-05-04","1","Vital Signs","Temperature","°C",36.5330888232049,"36.6","37"
"03-017","Screening","0","2015-06-26","1","Vital Signs","Diastolic Blood Pressure","mmHg",83.0467090501365,"60","80"
"03-017","Screening","0","2015-06-26","1","Vital Signs","Heart Rate","beats/minute",50.5122847267806,"50","80"
"03-017","Screening","0","2015-06-26","1","Vital Signs","Respiratory Rate","breaths/minute",18.9149189372609,"16","20"
"03-017","Screening","0","2015-06-26","1","Vital Signs","Systolic Blood Pressure","mmHg",140.808809787517,"90","120"
"03-017","Screening","0","2015-06-26","1","Vital Signs","Temperature","°C",36.7410935387854,"36.6","37"
"03-017","Visit 1","1","2015-08-14","50","Vital Signs","Diastolic Blood Pressure","mmHg",,"60","80"
"03-017","Visit 1","1","2015-08-14","50","Vital Signs","Heart Rate","beats/minute",70.5962365595659,"50","80"
"03-017","Visit 1","1","2015-08-14","50","Vital Signs","Respiratory Rate","breaths/minute",17.7305281763086,"16","20"
"03-017","Visit 1","1","2015-08-14","50","Vital Signs","Systolic Blood Pressure","mmHg",125.223714785046,"90","120"
"03-017","Visit 1","1","2015-08-14","50","Vital Signs","Temperature","°C",36.8860043934313,"36.6","37"
"03-018","Screening","0","2015-05-30","1","Vital Signs","Diastolic Blood Pressure","mmHg",65.1670713701218,"60","80"
"03-018","Screening","0","2015-05-30","1","Vital Signs","Heart Rate","beats/minute",84.87248326014,"50","80"
"03-018","Screening","0","2015-05-30","1","Vital Signs","Respiratory Rate","breaths/minute",18.9517884752033,"16","20"
"03-018","Screening","0","2015-05-30","1","Vital Signs","Systolic Blood Pressure","mmHg",121.018820218528,"90","120"
"03-018","Screening","0","2015-05-30","1","Vital Signs","Temperature","°C",36.3613224838862,"36.6","37"
"03-018","Visit 1","1","2015-07-20","52","Vital Signs","Diastolic Blood Pressure","mmHg",,"60","80"
"03-018","Visit 1","1","2015-07-20","52","Vital Signs","Heart Rate","beats/minute",51.4987740846772,"50","80"
"03-018","Visit 1","1","2015-07-20","52","Vital Signs","Respiratory Rate","breaths/minute",17.4034551497989,"16","20"
"03-018","Visit 1","1","2015-07-20","52","Vital Signs","Systolic Blood Pressure","mmHg",98.5609018753352,"90","120"
"03-018","Visit 1","1","2015-07-20","52","Vital Signs","Temperature","°C",36.8422844571204,"36.6","37"
"03-019","Screening","0","2015-11-06","1","Vital Signs","Diastolic Blood Pressure","mmHg",83.7442356869992,"60","80"
"03-019","Screening","0","2015-11-06","1","Vital Signs","Heart Rate","beats/minute",66.7674408851547,"50","80"
"03-019","Screening","0","2015-11-06","1","Vital Signs","Respiratory Rate","breaths/minute",17.9308220770533,"16","20"
"03-019","Screening","0","2015-11-06","1","Vital Signs","Systolic Blood Pressure","mmHg",92.2782727455982,"90","120"
"03-019","Screening","0","2015-11-06","1","Vital Signs","Temperature","°C",36.895231624954,"36.6","37"
"03-019","Unscheduled 0.1","0.1","2015-11-14","9","Vital Signs","Diastolic Blood Pressure","mmHg",64.0877039991613,"60","80"
"03-019","Unscheduled 0.1","0.1","2015-11-14","9","Vital Signs","Heart Rate","beats/minute",69.5272961879192,"50","80"
"03-019","Unscheduled 0.1","0.1","2015-11-14","9","Vital Signs","Respiratory Rate","breaths/minute",20.8279228055234,"16","20"
"03-019","Unscheduled 0.1","0.1","2015-11-14","9","Vital Signs","Systolic Blood Pressure","mmHg",95.8428931417182,"90","120"
"03-019","Unscheduled 0.1","0.1","2015-11-14","9","Vital Signs","Temperature","°C",36.8519597523076,"36.6","37"
"03-019","Visit 1","1","2016-01-05","61","Vital Signs","Diastolic Blood Pressure","mmHg",,"60","80"
"03-019","Visit 1","1","2016-01-05","61","Vital Signs","Heart Rate","beats/minute",66.3786738609422,"50","80"
"03-019","Visit 1","1","2016-01-05","61","Vital Signs","Respiratory Rate","breaths/minute",16.93966750355,"16","20"
"03-019","Visit 1","1","2016-01-05","61","Vital Signs","Systolic Blood Pressure","mmHg",116.47216177777,"90","120"
"03-019","Visit 1","1","2016-01-05","61","Vital Signs","Temperature","°C",36.9144655668062,"36.6","37"
"03-019","Visit 2","2","2016-02-21","108","Vital Signs","Diastolic Blood Pressure","mmHg",63.3886205795254,"60","80"
"03-019","Visit 2","2","2016-02-21","108","Vital Signs","Heart Rate","beats/minute",75.3036089801634,"50","80"
"03-019","Visit 2","2","2016-02-21","108","Vital Signs","Respiratory Rate","breaths/minute",16.9302336637914,"16","20"
"03-019","Visit 2","2","2016-02-21","108","Vital Signs","Systolic Blood Pressure","mmHg",92.4819459253833,"90","120"
"03-019","Visit 2","2","2016-02-21","108","Vital Signs","Temperature","°C",36.8889180047444,"36.6","37"
"03-019","Visit 3","3","2016-04-24","171","Vital Signs","Diastolic Blood Pressure","mmHg",75.3955393773967,"60","80"
"03-019","Visit 3","3","2016-04-24","171","Vital Signs","Heart Rate","beats/minute",80.336960606848,"50","80"
"03-019","Visit 3","3","2016-04-24","171","Vital Signs","Respiratory Rate","breaths/minute",,"16","20"
"03-019","Visit 3","3","2016-04-24","171","Vital Signs","Systolic Blood Pressure","mmHg",99.8256364819872,"90","120"
"03-019","Visit 3","3","2016-04-24","171","Vital Signs","Temperature","°C",36.9383016094403,"36.6","37"
"03-019","Visit 4","4","2016-06-20","228","Vital Signs","Diastolic Blood Pressure","mmHg",73.1132970392698,"60","80"
"03-019","Visit 4","4","2016-06-20","228","Vital Signs","Heart Rate","beats/minute",92.1168533895774,"50","80"
"03-019","Visit 4","4","2016-06-20","228","Vital Signs","Respiratory Rate","breaths/minute",16.2985693898317,"16","20"
"03-019","Visit 4","4","2016-06-20","228","Vital Signs","Systolic Blood Pressure","mmHg",73.4275648077173,"90","120"
"03-019","Visit 4","4","2016-06-20","228","Vital Signs","Temperature","°C",37.1018911503168,"36.6","37"
"03-019","Unscheduled 4.1","4.1","2016-06-28","236","Vital Signs","Diastolic Blood Pressure","mmHg",74.4371343934843,"60","80"
"03-019","Unscheduled 4.1","4.1","2016-06-28","236","Vital Signs","Heart Rate","beats/minute",47.0402239471024,"50","80"
"03-019","Unscheduled 4.1","4.1","2016-06-28","236","Vital Signs","Respiratory Rate","breaths/minute",18.4522495028238,"16","20"
"03-019","Unscheduled 4.1","4.1","2016-06-28","236","Vital Signs","Systolic Blood Pressure","mmHg",97.6265593172001,"90","120"
"03-019","Unscheduled 4.1","4.1","2016-06-28","236","Vital Signs","Temperature","°C",36.425923102709,"36.6","37"
"03-019","Visit 5","5","2016-08-12","281","Vital Signs","Diastolic Blood Pressure","mmHg",,"60","80"
"03-019","Visit 5","5","2016-08-12","281","Vital Signs","Heart Rate","beats/minute",53.6078147478138,"50","80"
"03-019","Visit 5","5","2016-08-12","281","Vital Signs","Respiratory Rate","breaths/minute",16.9689926067869,"16","20"
"03-019","Visit 5","5","2016-08-12","281","Vital Signs","Systolic Blood Pressure","mmHg",,"90","120"
"03-019","Visit 5","5","2016-08-12","281","Vital Signs","Temperature","°C",36.6492376463077,"36.6","37"
"03-019","Unscheduled 5.1","5.1","2016-08-20","289","Vital Signs","Diastolic Blood Pressure","mmHg",66.7284121546363,"60","80"
"03-019","Unscheduled 5.1","5.1","2016-08-20","289","Vital Signs","Heart Rate","beats/minute",41.1754610593387,"50","80"
"03-019","Unscheduled 5.1","5.1","2016-08-20","289","Vital Signs","Respiratory Rate","breaths/minute",20.6411697432111,"16","20"
"03-019","Unscheduled 5.1","5.1","2016-08-20","289","Vital Signs","Systolic Blood Pressure","mmHg",108.493566610704,"90","120"
"03-019","Unscheduled 5.1","5.1","2016-08-20","289","Vital Signs","Temperature","°C",36.8791095516048,"36.6","37"
"03-019","Visit 6","6","2016-10-02","332","Vital Signs","Diastolic Blood Pressure","mmHg",57.8399516184831,"60","80"
"03-019","Visit 6","6","2016-10-02","332","Vital Signs","Heart Rate","beats/minute",53.4898797010341,"50","80"
"03-019","Visit 6","6","2016-10-02","332","Vital Signs","Respiratory Rate","breaths/minute",18.5188671354923,"16","20"
"03-019","Visit 6","6","2016-10-02","332","Vital Signs","Systolic Blood Pressure","mmHg",139.104834481203,"90","120"
"03-019","Visit 6","6","2016-10-02","332","Vital Signs","Temperature","°C",36.9830952784584,"36.6","37"
"03-019","End of Study","7","2016-10-25","355","Vital Signs","Diastolic Blood Pressure","mmHg",51.5082619676248,"60","80"
"03-019","End of Study","7","2016-10-25","355","Vital Signs","Heart Rate","beats/minute",28.3630119292145,"50","80"
"03-019","End of Study","7","2016-10-25","355","Vital Signs","Respiratory Rate","breaths/minute",18.3262970862731,"16","20"
"03-019","End of Study","7","2016-10-25","355","Vital Signs","Systolic Blood Pressure","mmHg",,"90","120"
"03-019","End of Study","7","2016-10-25","355","Vital Signs","Temperature","°C",36.9356949712968,"36.6","37"
"03-020","Screening","0","2015-08-09","1","Vital Signs","Diastolic Blood Pressure","mmHg",60.2907327649039,"60","80"
"03-020","Screening","0","2015-08-09","1","Vital Signs","Heart Rate","beats/minute",81.0810558837022,"50","80"
"03-020","Screening","0","2015-08-09","1","Vital Signs","Respiratory Rate","breaths/minute",16.2674863988882,"16","20"
"03-020","Screening","0","2015-08-09","1","Vital Signs","Systolic Blood Pressure","mmHg",96.1734003037836,"90","120"
"03-020","Screening","0","2015-08-09","1","Vital Signs","Temperature","°C",36.6902103138239,"36.6","37"
"03-020","Visit 1","1","2015-09-27","50","Vital Signs","Diastolic Blood Pressure","mmHg",,"60","80"
"03-020","Visit 1","1","2015-09-27","50","Vital Signs","Heart Rate","beats/minute",63.7205007843655,"50","80"
"03-020","Visit 1","1","2015-09-27","50","Vital Signs","Respiratory Rate","breaths/minute",19.519514072764,"16","20"
"03-020","Visit 1","1","2015-09-27","50","Vital Signs","Systolic Blood Pressure","mmHg",110.52199005147,"90","120"
"03-020","Visit 1","1","2015-09-27","50","Vital Signs","Temperature","°C",36.7166359748925,"36.6","37"
"03-021","Screening","0","2015-09-21","1","Vital Signs","Diastolic Blood Pressure","mmHg",79.0450020809142,"60","80"
"03-021","Screening","0","2015-09-21","1","Vital Signs","Heart Rate","beats/minute",61.4677759431224,"50","80"
"03-021","Screening","0","2015-09-21","1","Vital Signs","Respiratory Rate","breaths/minute",14.4397409044715,"16","20"
"03-021","Screening","0","2015-09-21","1","Vital Signs","Systolic Blood Pressure","mmHg",112.308601768751,"90","120"
"03-021","Screening","0","2015-09-21","1","Vital Signs","Temperature","°C",36.8760615209926,"36.6","37"
"03-021","Unscheduled 0.1","0.1","2015-09-29","9","Vital Signs","Diastolic Blood Pressure","mmHg",90.5900545069677,"60","80"
"03-021","Unscheduled 0.1","0.1","2015-09-29","9","Vital Signs","Heart Rate","beats/minute",46.4423011752043,"50","80"
"03-021","Unscheduled 0.1","0.1","2015-09-29","9","Vital Signs","Respiratory Rate","breaths/minute",19.2868722704298,"16","20"
"03-021","Unscheduled 0.1","0.1","2015-09-29","9","Vital Signs","Systolic Blood Pressure","mmHg",104.625462611035,"90","120"
"03-021","Unscheduled 0.1","0.1","2015-09-29","9","Vital Signs","Temperature","°C",36.9264755087898,"36.6","37"
"03-021","Visit 1","1","2015-11-12","53","Vital Signs","Diastolic Blood Pressure","mmHg",,"60","80"
"03-021","Visit 1","1","2015-11-12","53","Vital Signs","Heart Rate","beats/minute",60.8129367995575,"50","80"
"03-021","Visit 1","1","2015-11-12","53","Vital Signs","Respiratory Rate","breaths/minute",19.1295188024844,"16","20"
"03-021","Visit 1","1","2015-11-12","53","Vital Signs","Systolic Blood Pressure","mmHg",114.31653908336,"90","120"
"03-021","Visit 1","1","2015-11-12","53","Vital Signs","Temperature","°C",36.7092923276573,"36.6","37"
"03-021","Visit 2","2","2016-01-09","111","Vital Signs","Diastolic Blood Pressure","mmHg",65.4073975755313,"60","80"
"03-021","Visit 2","2","2016-01-09","111","Vital Signs","Heart Rate","beats/minute",31.9464553373758,"50","80"
"03-021","Visit 2","2","2016-01-09","111","Vital Signs","Respiratory Rate","breaths/minute",19.1006842548735,"16","20"
"03-021","Visit 2","2","2016-01-09","111","Vital Signs","Systolic Blood Pressure","mmHg",97.2209933831881,"90","120"
"03-021","Visit 2","2","2016-01-09","111","Vital Signs","Temperature","°C",36.8352734087037,"36.6","37"
"03-021","Visit 3","3","2016-03-08","170","Vital Signs","Diastolic Blood Pressure","mmHg",79.9224952937847,"60","80"
"03-021","Visit 3","3","2016-03-08","170","Vital Signs","Heart Rate","beats/minute",58.5390410541152,"50","80"
"03-021","Visit 3","3","2016-03-08","170","Vital Signs","Respiratory Rate","breaths/minute",,"16","20"
"03-021","Visit 3","3","2016-03-08","170","Vital Signs","Systolic Blood Pressure","mmHg",111.146550697415,"90","120"
"03-021","Visit 3","3","2016-03-08","170","Vital Signs","Temperature","°C",36.5832112384933,"36.6","37"
"03-021","Visit 4","4","2016-04-24","217","Vital Signs","Diastolic Blood Pressure","mmHg",83.6486845046825,"60","80"
"03-021","Visit 4","4","2016-04-24","217","Vital Signs","Heart Rate","beats/minute",45.2072285924329,"50","80"
"03-021","Visit 4","4","2016-04-24","217","Vital Signs","Respiratory Rate","breaths/minute",19.1341951554225,"16","20"
"03-021","Visit 4","4","2016-04-24","217","Vital Signs","Systolic Blood Pressure","mmHg",93.0274467737308,"90","120"
"03-021","Visit 4","4","2016-04-24","217","Vital Signs","Temperature","°C",36.6917217919199,"36.6","37"
"03-021","Visit 5","5","2016-06-19","273","Vital Signs","Diastolic Blood Pressure","mmHg",68.6787772171662,"60","80"
"03-021","Visit 5","5","2016-06-19","273","Vital Signs","Heart Rate","beats/minute",52.5964958461074,"50","80"
"03-021","Visit 5","5","2016-06-19","273","Vital Signs","Respiratory Rate","breaths/minute",18.0532229354048,"16","20"
"03-021","Visit 5","5","2016-06-19","273","Vital Signs","Systolic Blood Pressure","mmHg",,"90","120"
"03-021","Visit 5","5","2016-06-19","273","Vital Signs","Temperature","°C",37.0624232642918,"36.6","37"
"03-022","Screening","0","2015-05-14","1","Vital Signs","Diastolic Blood Pressure","mmHg",69.6724225591818,"60","80"
"03-022","Screening","0","2015-05-14","1","Vital Signs","Heart Rate","beats/minute",73.5886029880127,"50","80"
"03-022","Screening","0","2015-05-14","1","Vital Signs","Respiratory Rate","breaths/minute",19.367807839116,"16","20"
"03-022","Screening","0","2015-05-14","1","Vital Signs","Systolic Blood Pressure","mmHg",101.803620974398,"90","120"
"03-022","Screening","0","2015-05-14","1","Vital Signs","Temperature","°C",36.9404419327449,"36.6","37"
"03-022","Visit 1","1","2015-07-02","50","Vital Signs","Diastolic Blood Pressure","mmHg",,"60","80"
"03-022","Visit 1","1","2015-07-02","50","Vital Signs","Heart Rate","beats/minute",67.831586871377,"50","80"
"03-022","Visit 1","1","2015-07-02","50","Vital Signs","Respiratory Rate","breaths/minute",16.7695068594051,"16","20"
"03-022","Visit 1","1","2015-07-02","50","Vital Signs","Systolic Blood Pressure","mmHg",106.348861960425,"90","120"
"03-022","Visit 1","1","2015-07-02","50","Vital Signs","Temperature","°C",36.5095236084817,"36.6","37"
"03-022","Unscheduled 1.1","1.1","2015-07-10","58","Vital Signs","Diastolic Blood Pressure","mmHg",64.87508868798,"60","80"
"03-022","Unscheduled 1.1","1.1","2015-07-10","58","Vital Signs","Heart Rate","beats/minute",78.7282487197801,"50","80"
"03-022","Unscheduled 1.1","1.1","2015-07-10","58","Vital Signs","Respiratory Rate","breaths/minute",16.0871408613911,"16","20"
"03-022","Unscheduled 1.1","1.1","2015-07-10","58","Vital Signs","Systolic Blood Pressure","mmHg",92.6260240283546,"90","120"
"03-022","Unscheduled 1.1","1.1","2015-07-10","58","Vital Signs","Temperature","°C",36.8524768198338,"36.6","37"
"03-022","Unscheduled 1.2","1.2","2015-07-17","65","Vital Signs","Diastolic Blood Pressure","mmHg",62.4164748025082,"60","80"
"03-022","Unscheduled 1.2","1.2","2015-07-17","65","Vital Signs","Heart Rate","beats/minute",70.355721367736,"50","80"
"03-022","Unscheduled 1.2","1.2","2015-07-17","65","Vital Signs","Respiratory Rate","breaths/minute",19.584972341753,"16","20"
"03-022","Unscheduled 1.2","1.2","2015-07-17","65","Vital Signs","Systolic Blood Pressure","mmHg",110.456943401556,"90","120"
"03-022","Unscheduled 1.2","1.2","2015-07-17","65","Vital Signs","Temperature","°C",36.6579038679158,"36.6","37"
"03-022","Visit 2","2","2015-09-07","117","Vital Signs","Diastolic Blood Pressure","mmHg",80.1810392679171,"60","80"
"03-022","Visit 2","2","2015-09-07","117","Vital Signs","Heart Rate","beats/minute",72.7891364556913,"50","80"
"03-022","Visit 2","2","2015-09-07","117","Vital Signs","Respiratory Rate","breaths/minute",16.8858889008289,"16","20"
"03-022","Visit 2","2","2015-09-07","117","Vital Signs","Systolic Blood Pressure","mmHg",100.019106862643,"90","120"
"03-022","Visit 2","2","2015-09-07","117","Vital Signs","Temperature","°C",36.7195166352952,"36.6","37"
"03-022","Visit 3","3","2015-10-24","164","Vital Signs","Diastolic Blood Pressure","mmHg",74.6720004744484,"60","80"
"03-022","Visit 3","3","2015-10-24","164","Vital Signs","Heart Rate","beats/minute",49.3914403197432,"50","80"
"03-022","Visit 3","3","2015-10-24","164","Vital Signs","Respiratory Rate","breaths/minute",,"16","20"
"03-022","Visit 3","3","2015-10-24","164","Vital Signs","Systolic Blood Pressure","mmHg",90.0523850831913,"90","120"
"03-022","Visit 3","3","2015-10-24","164","Vital Signs","Temperature","°C",36.9117576759044,"36.6","37"
"03-022","Visit 4","4","2015-12-17","218","Vital Signs","Diastolic Blood Pressure","mmHg",65.130980158077,"60","80"
"03-022","Visit 4","4","2015-12-17","218","Vital Signs","Heart Rate","beats/minute",64.0755049281524,"50","80"
"03-022","Visit 4","4","2015-12-17","218","Vital Signs","Respiratory Rate","breaths/minute",15.474335098169,"16","20"
"03-022","Visit 4","4","2015-12-17","218","Vital Signs","Systolic Blood Pressure","mmHg",124.464053583132,"90","120"
"03-022","Visit 4","4","2015-12-17","218","Vital Signs","Temperature","°C",36.8167242889187,"36.6","37"
"03-022","Visit 5","5","2016-02-15","278","Vital Signs","Diastolic Blood Pressure","mmHg",66.3571657687452,"60","80"
"03-022","Visit 5","5","2016-02-15","278","Vital Signs","Heart Rate","beats/minute",71.1717405894399,"50","80"
"03-022","Visit 5","5","2016-02-15","278","Vital Signs","Respiratory Rate","breaths/minute",17.2057060663718,"16","20"
"03-022","Visit 5","5","2016-02-15","278","Vital Signs","Systolic Blood Pressure","mmHg",,"90","120"
"03-022","Visit 5","5","2016-02-15","278","Vital Signs","Temperature","°C",36.6027322298965,"36.6","37"
"03-023","Screening","0","2015-03-25","1","Vital Signs","Diastolic Blood Pressure","mmHg",79.1350202356995,"60","80"
"03-023","Screening","0","2015-03-25","1","Vital Signs","Heart Rate","beats/minute",63.180287500234,"50","80"
"03-023","Screening","0","2015-03-25","1","Vital Signs","Respiratory Rate","breaths/minute",14.7205271760946,"16","20"
"03-023","Screening","0","2015-03-25","1","Vital Signs","Systolic Blood Pressure","mmHg",115.149685632697,"90","120"
"03-023","Screening","0","2015-03-25","1","Vital Signs","Temperature","°C",36.6230515417893,"36.6","37"
"03-025","Screening","0","2015-04-29","1","Vital Signs","Diastolic Blood Pressure","mmHg",76.8612268150181,"60","80"
"03-025","Screening","0","2015-04-29","1","Vital Signs","Heart Rate","beats/minute",70.4079638515118,"50","80"
"03-025","Screening","0","2015-04-29","1","Vital Signs","Respiratory Rate","breaths/minute",16.7926348438421,"16","20"
"03-025","Screening","0","2015-04-29","1","Vital Signs","Systolic Blood Pressure","mmHg",118.814905871612,"90","120"
"03-025","Screening","0","2015-04-29","1","Vital Signs","Temperature","°C",36.3614623923645,"36.6","37"
"03-025","Visit 1","1","2015-06-24","57","Vital Signs","Diastolic Blood Pressure","mmHg",,"60","80"
"03-025","Visit 1","1","2015-06-24","57","Vital Signs","Heart Rate","beats/minute",,"50","80"
"03-025","Visit 1","1","2015-06-24","57","Vital Signs","Respiratory Rate","breaths/minute",15.5655474337381,"16","20"
"03-025","Visit 1","1","2015-06-24","57","Vital Signs","Systolic Blood Pressure","mmHg",107.971884595488,"90","120"
"03-025","Visit 1","1","2015-06-24","57","Vital Signs","Temperature","°C",36.893782286298,"36.6","37"
"03-025","Visit 2","2","2015-08-17","111","Vital Signs","Diastolic Blood Pressure","mmHg",69.8431628523681,"60","80"
"03-025","Visit 2","2","2015-08-17","111","Vital Signs","Heart Rate","beats/minute",34.4004019305459,"50","80"
"03-025","Visit 2","2","2015-08-17","111","Vital Signs","Respiratory Rate","breaths/minute",13.994215653719,"16","20"
"03-025","Visit 2","2","2015-08-17","111","Vital Signs","Systolic Blood Pressure","mmHg",82.3683139519254,"90","120"
"03-025","Visit 2","2","2015-08-17","111","Vital Signs","Temperature","°C",36.9439303858899,"36.6","37"
"03-025","Visit 4","4","2015-12-13","229","Vital Signs","Diastolic Blood Pressure","mmHg",71.0655759113556,"60","80"
"03-025","Visit 4","4","2015-12-13","229","Vital Signs","Heart Rate","beats/minute",65.4656215923232,"50","80"
"03-025","Visit 4","4","2015-12-13","229","Vital Signs","Respiratory Rate","breaths/minute",18.885970467759,"16","20"
"03-025","Visit 4","4","2015-12-13","229","Vital Signs","Systolic Blood Pressure","mmHg",109.960948723365,"90","120"
"03-025","Visit 4","4","2015-12-13","229","Vital Signs","Temperature","°C",37.2040594372628,"36.6","37"
"03-028","Screening","0","2015-03-08","1","Vital Signs","Diastolic Blood Pressure","mmHg",,"60","80"
"03-028","Screening","0","2015-03-08","1","Vital Signs","Heart Rate","beats/minute",58.4234292010522,"50","80"
"03-028","Screening","0","2015-03-08","1","Vital Signs","Respiratory Rate","breaths/minute",16.5118495880288,"16","20"
"03-028","Screening","0","2015-03-08","1","Vital Signs","Systolic Blood Pressure","mmHg",89.7465142077312,"90","120"
"03-028","Screening","0","2015-03-08","1","Vital Signs","Temperature","°C",37.0282697141561,"36.6","37"
"03-028","Visit 1","1","2015-05-02","56","Vital Signs","Diastolic Blood Pressure","mmHg",,"60","80"
"03-028","Visit 1","1","2015-05-02","56","Vital Signs","Heart Rate","beats/minute",41.7031580613303,"50","80"
"03-028","Visit 1","1","2015-05-02","56","Vital Signs","Respiratory Rate","breaths/minute",20.9554223927225,"16","20"
"03-028","Visit 1","1","2015-05-02","56","Vital Signs","Systolic Blood Pressure","mmHg",81.400497798973,"90","120"
"03-028","Visit 1","1","2015-05-02","56","Vital Signs","Temperature","°C",36.619579591251,"36.6","37"
"03-028","Visit 2","2","2015-07-02","117","Vital Signs","Diastolic Blood Pressure","mmHg",68.7104780342874,"60","80"
"03-028","Visit 2","2","2015-07-02","117","Vital Signs","Heart Rate","beats/minute",50.0533866506526,"50","80"
"03-028","Visit 2","2","2015-07-02","117","Vital Signs","Respiratory Rate","breaths/minute",20.3442411950262,"16","20"
"03-028","Visit 2","2","2015-07-02","117","Vital Signs","Systolic Blood Pressure","mmHg",114.757718263227,"90","120"
"03-028","Visit 2","2","2015-07-02","117","Vital Signs","Temperature","°C",37.0857236730798,"36.6","37"
"03-028","Visit 3","3","2015-08-18","164","Vital Signs","Diastolic Blood Pressure","mmHg",58.5755577446191,"60","80"
"03-028","Visit 3","3","2015-08-18","164","Vital Signs","Heart Rate","beats/minute",56.0305687407671,"50","80"
"03-028","Visit 3","3","2015-08-18","164","Vital Signs","Respiratory Rate","breaths/minute",,"16","20"
"03-028","Visit 3","3","2015-08-18","164","Vital Signs","Systolic Blood Pressure","mmHg",100.348686028515,"90","120"
"03-028","Visit 3","3","2015-08-18","164","Vital Signs","Temperature","°C",37.1309509682345,"36.6","37"
"03-028","Visit 4","4","2015-10-21","228","Vital Signs","Diastolic Blood Pressure","mmHg",89.2401425809935,"60","80"
"03-028","Visit 4","4","2015-10-21","228","Vital Signs","Heart Rate","beats/minute",44.1340979652324,"50","80"
"03-028","Visit 4","4","2015-10-21","228","Vital Signs","Respiratory Rate","breaths/minute",18.4420032224171,"16","20"
"03-028","Visit 4","4","2015-10-21","228","Vital Signs","Systolic Blood Pressure","mmHg",112.211290353447,"90","120"
"03-028","Visit 4","4","2015-10-21","228","Vital Signs","Temperature","°C",36.9058750938934,"36.6","37"
"03-029","Screening","0","2015-06-03","1","Vital Signs","Diastolic Blood Pressure","mmHg",77.6206528873629,"60","80"
"03-029","Screening","0","2015-06-03","1","Vital Signs","Heart Rate","beats/minute",71.4365160100745,"50","80"
"03-029","Screening","0","2015-06-03","1","Vital Signs","Respiratory Rate","breaths/minute",18.2291207198073,"16","20"
"03-029","Screening","0","2015-06-03","1","Vital Signs","Systolic Blood Pressure","mmHg",103.969190615941,"90","120"
"03-029","Screening","0","2015-06-03","1","Vital Signs","Temperature","°C",36.7173042680108,"36.6","37"
"03-029","Visit 1","1","2015-07-31","59","Vital Signs","Diastolic Blood Pressure","mmHg",,"60","80"
"03-029","Visit 1","1","2015-07-31","59","Vital Signs","Heart Rate","beats/minute",63.9249292579588,"50","80"
"03-029","Visit 1","1","2015-07-31","59","Vital Signs","Respiratory Rate","breaths/minute",19.0042184788078,"16","20"
"03-029","Visit 1","1","2015-07-31","59","Vital Signs","Systolic Blood Pressure","mmHg",116.136997941975,"90","120"
"03-029","Visit 1","1","2015-07-31","59","Vital Signs","Temperature","°C",37.2184029795984,"36.6","37"
"03-029","Unscheduled 1.1","1.1","2015-08-08","67","Vital Signs","Diastolic Blood Pressure","mmHg",69.2333082678502,"60","80"
"03-029","Unscheduled 1.1","1.1","2015-08-08","67","Vital Signs","Heart Rate","beats/minute",57.7746367481503,"50","80"
"03-029","Unscheduled 1.1","1.1","2015-08-08","67","Vital Signs","Respiratory Rate","breaths/minute",13.6891478702613,"16","20"
"03-029","Unscheduled 1.1","1.1","2015-08-08","67","Vital Signs","Systolic Blood Pressure","mmHg",114.368413606087,"90","120"
"03-029","Unscheduled 1.1","1.1","2015-08-08","67","Vital Signs","Temperature","°C",37.0249868082979,"36.6","37"
"03-029","Visit 3","3","2015-11-16","167","Vital Signs","Diastolic Blood Pressure","mmHg",66.9906335525796,"60","80"
"03-029","Visit 3","3","2015-11-16","167","Vital Signs","Heart Rate","beats/minute",62.3204196394491,"50","80"
"03-029","Visit 3","3","2015-11-16","167","Vital Signs","Respiratory Rate","breaths/minute",,"16","20"
"03-029","Visit 3","3","2015-11-16","167","Vital Signs","Systolic Blood Pressure","mmHg",127.814820344039,"90","120"
"03-029","Visit 3","3","2015-11-16","167","Vital Signs","Temperature","°C",36.6304848071466,"36.6","37"
"03-029","Visit 4","4","2016-01-12","224","Vital Signs","Diastolic Blood Pressure","mmHg",73.8739725542376,"60","80"
"03-029","Visit 4","4","2016-01-12","224","Vital Signs","Heart Rate","beats/minute",68.4033183161129,"50","80"
"03-029","Visit 4","4","2016-01-12","224","Vital Signs","Respiratory Rate","breaths/minute",15.1945009172085,"16","20"
"03-029","Visit 4","4","2016-01-12","224","Vital Signs","Systolic Blood Pressure","mmHg",101.903255706348,"90","120"
"03-029","Visit 4","4","2016-01-12","224","Vital Signs","Temperature","°C",36.5335637163145,"36.6","37"
"03-030","Screening","0","2015-03-30","1","Vital Signs","Diastolic Blood Pressure","mmHg",59.9751580757592,"60","80"
"03-030","Screening","0","2015-03-30","1","Vital Signs","Heart Rate","beats/minute",41.2762486308022,"50","80"
"03-030","Screening","0","2015-03-30","1","Vital Signs","Respiratory Rate","breaths/minute",14.5920409695994,"16","20"
