"USUBJID","VISIT","VISITNUM","LBDT","LBDY","LBCAT","LBTEST","LBSTRESU","LBSTRESN","LBSTNRLO","LBSTNRHI"
"01-001","Screening","0","2015-05-21","1","Serum","Albumin","g/L",48.8951754817963,"35","55"
"01-001","Screening","0","2015-05-21","1","Urine","Albumin/Creatinine","mg/g",,"0","30"
"01-001","Screening","0","2015-05-21","1","Serum","Alkaline phosphatase (ALP)","μkat/L",0.353441557756458,"0.5","1.5"
"01-001","Screening","0","2015-05-21","1","Serum","Aminotransferase, alanine (ALT)","pkat/L",0,"0","0.58"
"01-001","Screening","0","2015-05-21","1","Serum","Aminotransferase, aspartate (AST)","pkat/L",0.230454585959809,"0","0.58"
"01-001","Screening","0","2015-05-21","1","Serum","Bicarbonate","mmol/L",24.7964173973236,"23","28"
"01-001","Screening","0","2015-05-21","1","Serum","Blood Urea Nitrogen","mmol/L",,"2.9","7.1"
"01-001","Screening","0","2015-05-21","1","Serum","Calcium","mmol/L",2.40364284621797,"2.2","2.6"
"01-001","Screening","0","2015-05-21","1","Serum","Chloride","mmol/L",101.977738128482,"98","106"
"01-001","Screening","0","2015-05-21","1","Serum","Creatinine","μmol/L",54.9522524666975,"61.9","115"
"01-001","Screening","0","2015-05-21","1","Serum","Cystatin C","mg/L",0.575219139698101,"0.51","0.98"
"01-001","Screening","0","2015-05-21","1","Serum","Direct Bilirubin","μmol/L",3.17702878376026,"0","5.1"
"01-001","Screening","0","2015-05-21","1","Serum","eGFR","μmol/L",54.9560362959667,"61.9","115"
"01-001","Screening","0","2015-05-21","1","Serum","eGFRcys","μmol/L",41.7012060153958,"61.9","115"
"01-001","Screening","0","2015-05-21","1","Serum","IgE","mg/L",0,"0.1","0.4"
"01-001","Screening","0","2015-05-21","1","Serum","Magnesium","mmol/L",0.953667745626079,"0.62","0.99"
"01-001","Screening","0","2015-05-21","1","Serum","Phosphorus","mmol/L",,"0.97","1.45"
"01-001","Screening","0","2015-05-21","1","Blood","Platelet count","x 109/L",340.221525041894,"150","350"
"01-001","Screening","0","2015-05-21","1","Serum","Potassium","mmol/L",3.69951444402466,"3.5","5"
"01-001","Screening","0","2015-05-21","1","Blood","RBC count","x 1012 cells/L",5.78755439872171,"4.2","5.9"
"01-001","Screening","0","2015-05-21","1","Serum","Sodium","mmol/L",137.05346773147,"136","145"
"01-001","Screening","0","2015-05-21","1","Serum","Total Bilirubin","μmol/L",,"5.1","20.5"
"01-001","Screening","0","2015-05-21","1","Blood","WBC count","x 109 cells/L",,"4.5","11"
"01-001","Early Termination","6.9","2015-05-26","6","Serum","Albumin","g/L",64.3429816297352,"35","55"
"01-001","Early Termination","6.9","2015-05-26","6","Urine","Albumin/Creatinine","mg/g",0,"0","30"
"01-001","Early Termination","6.9","2015-05-26","6","Serum","Alkaline phosphatase (ALP)","μkat/L",0,"0.5","1.5"
"01-001","Early Termination","6.9","2015-05-26","6","Serum","Aminotransferase, alanine (ALT)","pkat/L",0.0934609248815394,"0","0.58"
"01-001","Early Termination","6.9","2015-05-26","6","Serum","Aminotransferase, aspartate (AST)","pkat/L",0.463214519560625,"0","0.58"
"01-001","Early Termination","6.9","2015-05-26","6","Serum","Bicarbonate","mmol/L",24.5131601395462,"23","28"
"01-001","Early Termination","6.9","2015-05-26","6","Serum","Blood Urea Nitrogen","mmol/L",7.89504164194405,"2.9","7.1"
"01-001","Early Termination","6.9","2015-05-26","6","Serum","Calcium","mmol/L",2.27614621119355,"2.2","2.6"
"01-001","Early Termination","6.9","2015-05-26","6","Serum","Chloride","mmol/L",105.915005977619,"98","106"
"01-001","Early Termination","6.9","2015-05-26","6","Serum","Creatinine","μmol/L",105.072911870706,"61.9","115"
"01-001","Early Termination","6.9","2015-05-26","6","Serum","Cystatin C","mg/L",0.730635546495176,"0.51","0.98"
"01-001","Early Termination","6.9","2015-05-26","6","Serum","Direct Bilirubin","μmol/L",3.70089525604676,"0","5.1"
"01-001","Early Termination","6.9","2015-05-26","6","Serum","eGFR","μmol/L",103.444743345437,"61.9","115"
"01-001","Early Termination","6.9","2015-05-26","6","Serum","eGFRcys","μmol/L",70.9416943262728,"61.9","115"
"01-001","Early Termination","6.9","2015-05-26","6","Serum","IgE","mg/L",0.306216276396264,"0.1","0.4"
"01-001","Early Termination","6.9","2015-05-26","6","Serum","Magnesium","mmol/L",0.628545222419995,"0.62","0.99"
"01-001","Early Termination","6.9","2015-05-26","6","Serum","Phosphorus","mmol/L",1.34309945458588,"0.97","1.45"
"01-001","Early Termination","6.9","2015-05-26","6","Blood","Platelet count","x 109/L",271.538540361787,"150","350"
"01-001","Early Termination","6.9","2015-05-26","6","Serum","Potassium","mmol/L",5.32492623945193,"3.5","5"
"01-001","Early Termination","6.9","2015-05-26","6","Blood","RBC count","x 1012 cells/L",5.00235491745465,"4.2","5.9"
"01-001","Early Termination","6.9","2015-05-26","6","Serum","Sodium","mmol/L",136.272859672564,"136","145"
"01-001","Early Termination","6.9","2015-05-26","6","Serum","Total Bilirubin","μmol/L",10.6476263644,"5.1","20.5"
"01-001","Early Termination","6.9","2015-05-26","6","Blood","WBC count","x 109 cells/L",8.46458474713168,"4.5","11"
"01-002","Screening","0","2015-05-30","1","Serum","Albumin","g/L",52.8643569264187,"35","55"
"01-002","Screening","0","2015-05-30","1","Urine","Albumin/Creatinine","mg/g",,"0","30"
"01-002","Screening","0","2015-05-30","1","Serum","Alkaline phosphatase (ALP)","μkat/L",,"0.5","1.5"
"01-002","Screening","0","2015-05-30","1","Serum","Aminotransferase, alanine (ALT)","pkat/L",0.172123309694854,"0","0.58"
"01-002","Screening","0","2015-05-30","1","Serum","Aminotransferase, aspartate (AST)","pkat/L",0.311771883903524,"0","0.58"
"01-002","Screening","0","2015-05-30","1","Serum","Bicarbonate","mmol/L",26.6144611216397,"23","28"
"01-002","Screening","0","2015-05-30","1","Serum","Blood Urea Nitrogen","mmol/L",,"2.9","7.1"
"01-002","Screening","0","2015-05-30","1","Serum","Calcium","mmol/L",2.35162039694583,"2.2","2.6"
"01-002","Screening","0","2015-05-30","1","Serum","Chloride","mmol/L",107.224098173481,"98","106"
"01-002","Screening","0","2015-05-30","1","Serum","Creatinine","μmol/L",34.9409262566633,"61.9","115"
"01-002","Screening","0","2015-05-30","1","Serum","Cystatin C","mg/L",0.703400024754824,"0.51","0.98"
"01-002","Screening","0","2015-05-30","1","Serum","Direct Bilirubin","μmol/L",0,"0","5.1"
"01-002","Screening","0","2015-05-30","1","Serum","eGFR","μmol/L",88.8373694853285,"61.9","115"
"01-002","Screening","0","2015-05-30","1","Serum","eGFRcys","μmol/L",91.6043708511801,"61.9","115"
"01-002","Screening","0","2015-05-30","1","Serum","IgE","mg/L",0.135765451425035,"0.1","0.4"
"01-002","Screening","0","2015-05-30","1","Serum","Magnesium","mmol/L",1.04443206199907,"0.62","0.99"
"01-002","Screening","0","2015-05-30","1","Serum","Phosphorus","mmol/L",,"0.97","1.45"
"01-002","Screening","0","2015-05-30","1","Blood","Platelet count","x 109/L",369.21546923018,"150","350"
"01-002","Screening","0","2015-05-30","1","Serum","Potassium","mmol/L",4.46492238450274,"3.5","5"
"01-002","Screening","0","2015-05-30","1","Blood","RBC count","x 1012 cells/L",2.8206763423315,"4.2","5.9"
"01-002","Screening","0","2015-05-30","1","Serum","Sodium","mmol/L",131.267674107437,"136","145"
"01-002","Screening","0","2015-05-30","1","Serum","Total Bilirubin","μmol/L",,"5.1","20.5"
"01-002","Screening","0","2015-05-30","1","Blood","WBC count","x 109 cells/L",,"4.5","11"
"01-002","Visit 2","2","2015-09-15","109","Serum","Albumin","g/L",32.8600840366061,"35","55"
"01-002","Visit 2","2","2015-09-15","109","Urine","Albumin/Creatinine","mg/g",39.2339310991071,"0","30"
"01-002","Visit 2","2","2015-09-15","109","Serum","Alkaline phosphatase (ALP)","μkat/L",0.984532635219926,"0.5","1.5"
"01-002","Visit 2","2","2015-09-15","109","Serum","Aminotransferase, alanine (ALT)","pkat/L",0.519441079692512,"0","0.58"
"01-002","Visit 2","2","2015-09-15","109","Serum","Aminotransferase, aspartate (AST)","pkat/L",,"0","0.58"
"01-002","Visit 2","2","2015-09-15","109","Serum","Bicarbonate","mmol/L",29.3910536319194,"23","28"
"01-002","Visit 2","2","2015-09-15","109","Serum","Blood Urea Nitrogen","mmol/L",,"2.9","7.1"
"01-002","Visit 2","2","2015-09-15","109","Serum","Calcium","mmol/L",,"2.2","2.6"
"01-002","Visit 2","2","2015-09-15","109","Serum","Chloride","mmol/L",96.09688300284,"98","106"
"01-002","Visit 2","2","2015-09-15","109","Serum","Creatinine","μmol/L",96.39916015491,"61.9","115"
"01-002","Visit 2","2","2015-09-15","109","Serum","Cystatin C","mg/L",0.893779176571158,"0.51","0.98"
"01-002","Visit 2","2","2015-09-15","109","Serum","Direct Bilirubin","μmol/L",4.46098235778777,"0","5.1"
"01-002","Visit 2","2","2015-09-15","109","Serum","eGFR","μmol/L",87.3784078712479,"61.9","115"
"01-002","Visit 2","2","2015-09-15","109","Serum","eGFRcys","μmol/L",82.9359452823478,"61.9","115"
"01-002","Visit 2","2","2015-09-15","109","Serum","IgE","mg/L",0.331078746910087,"0.1","0.4"
"01-002","Visit 2","2","2015-09-15","109","Serum","Magnesium","mmol/L",,"0.62","0.99"
"01-002","Visit 2","2","2015-09-15","109","Serum","Phosphorus","mmol/L",0.91934582343771,"0.97","1.45"
"01-002","Visit 2","2","2015-09-15","109","Blood","Platelet count","x 109/L",273.201975010458,"150","350"
"01-002","Visit 2","2","2015-09-15","109","Serum","Potassium","mmol/L",,"3.5","5"
"01-002","Visit 2","2","2015-09-15","109","Blood","RBC count","x 1012 cells/L",5.75157089296346,"4.2","5.9"
"01-002","Visit 2","2","2015-09-15","109","Serum","Sodium","mmol/L",,"136","145"
"01-002","Visit 2","2","2015-09-15","109","Serum","Total Bilirubin","μmol/L",15.082417445002,"5.1","20.5"
"01-002","Visit 2","2","2015-09-15","109","Blood","WBC count","x 109 cells/L",7.8072445268266,"4.5","11"
"01-002","Visit 3","3","2015-11-06","161","Serum","Albumin","g/L",52.3414679499376,"35","55"
"01-002","Visit 3","3","2015-11-06","161","Urine","Albumin/Creatinine","mg/g",20.0393558988686,"0","30"
"01-002","Visit 3","3","2015-11-06","161","Serum","Alkaline phosphatase (ALP)","μkat/L",,"0.5","1.5"
"01-002","Visit 3","3","2015-11-06","161","Serum","Aminotransferase, alanine (ALT)","pkat/L",0.440820291418494,"0","0.58"
"01-002","Visit 3","3","2015-11-06","161","Serum","Aminotransferase, aspartate (AST)","pkat/L",0.652928178282325,"0","0.58"
"01-002","Visit 3","3","2015-11-06","161","Serum","Bicarbonate","mmol/L",21.8726045534096,"23","28"
"01-002","Visit 3","3","2015-11-06","161","Serum","Blood Urea Nitrogen","mmol/L",3.17183429325376,"2.9","7.1"
"01-002","Visit 3","3","2015-11-06","161","Serum","Calcium","mmol/L",2.58380973568645,"2.2","2.6"
"01-002","Visit 3","3","2015-11-06","161","Serum","Chloride","mmol/L",96.1478910797086,"98","106"
"01-002","Visit 3","3","2015-11-06","161","Serum","Creatinine","μmol/L",94.9030839176866,"61.9","115"
"01-002","Visit 3","3","2015-11-06","161","Serum","Cystatin C","mg/L",0.717968192877605,"0.51","0.98"
"01-002","Visit 3","3","2015-11-06","161","Serum","Direct Bilirubin","μmol/L",1.40182672234336,"0","5.1"
"01-002","Visit 3","3","2015-11-06","161","Serum","eGFR","μmol/L",143.079101911707,"61.9","115"
"01-002","Visit 3","3","2015-11-06","161","Serum","eGFRcys","μmol/L",26.8468211976809,"61.9","115"
"01-002","Visit 3","3","2015-11-06","161","Serum","IgE","mg/L",0.129034048425784,"0.1","0.4"
"01-002","Visit 3","3","2015-11-06","161","Serum","Magnesium","mmol/L",0.913651299405997,"0.62","0.99"
"01-002","Visit 3","3","2015-11-06","161","Serum","Phosphorus","mmol/L",1.35275413284489,"0.97","1.45"
"01-002","Visit 3","3","2015-11-06","161","Blood","Platelet count","x 109/L",,"150","350"
"01-002","Visit 3","3","2015-11-06","161","Serum","Potassium","mmol/L",3.15424929406865,"3.5","5"
"01-002","Visit 3","3","2015-11-06","161","Blood","RBC count","x 1012 cells/L",,"4.2","5.9"
"01-002","Visit 3","3","2015-11-06","161","Serum","Sodium","mmol/L",141.757472952523,"136","145"
"01-002","Visit 3","3","2015-11-06","161","Serum","Total Bilirubin","μmol/L",19.9845353503032,"5.1","20.5"
"01-002","Visit 3","3","2015-11-06","161","Blood","WBC count","x 109 cells/L",,"4.5","11"
"01-003","Screening","0","2015-08-13","1","Serum","Albumin","g/L",50.1638718658345,"35","55"
"01-003","Screening","0","2015-08-13","1","Urine","Albumin/Creatinine","mg/g",,"0","30"
"01-003","Screening","0","2015-08-13","1","Serum","Alkaline phosphatase (ALP)","μkat/L",0.187695107681824,"0.5","1.5"
"01-003","Screening","0","2015-08-13","1","Serum","Aminotransferase, alanine (ALT)","pkat/L",0.484536449636344,"0","0.58"
"01-003","Screening","0","2015-08-13","1","Serum","Aminotransferase, aspartate (AST)","pkat/L",0.187763815994643,"0","0.58"
"01-003","Screening","0","2015-08-13","1","Serum","Bicarbonate","mmol/L",25.3528576137582,"23","28"
"01-003","Screening","0","2015-08-13","1","Serum","Blood Urea Nitrogen","mmol/L",,"2.9","7.1"
"01-003","Screening","0","2015-08-13","1","Serum","Calcium","mmol/L",2.194171998367,"2.2","2.6"
"01-003","Screening","0","2015-08-13","1","Serum","Chloride","mmol/L",99.4627726154549,"98","106"
"01-003","Screening","0","2015-08-13","1","Serum","Creatinine","μmol/L",102.531728035078,"61.9","115"
"01-003","Screening","0","2015-08-13","1","Serum","Cystatin C","mg/L",0.702875151665649,"0.51","0.98"
"01-003","Screening","0","2015-08-13","1","Serum","Direct Bilirubin","μmol/L",3.35166624700953,"0","5.1"
"01-003","Screening","0","2015-08-13","1","Serum","eGFR","μmol/L",117.72773239488,"61.9","115"
"01-003","Screening","0","2015-08-13","1","Serum","eGFRcys","μmol/L",98.1348971435349,"61.9","115"
"01-003","Screening","0","2015-08-13","1","Serum","IgE","mg/L",,"0.1","0.4"
"01-003","Screening","0","2015-08-13","1","Serum","Magnesium","mmol/L",0.766958325292061,"0.62","0.99"
"01-003","Screening","0","2015-08-13","1","Serum","Phosphorus","mmol/L",,"0.97","1.45"
"01-003","Screening","0","2015-08-13","1","Blood","Platelet count","x 109/L",221.170862840014,"150","350"
"01-003","Screening","0","2015-08-13","1","Serum","Potassium","mmol/L",,"3.5","5"
"01-003","Screening","0","2015-08-13","1","Blood","RBC count","x 1012 cells/L",5.80944943184011,"4.2","5.9"
"01-003","Screening","0","2015-08-13","1","Serum","Sodium","mmol/L",137.584450430215,"136","145"
"01-003","Screening","0","2015-08-13","1","Serum","Total Bilirubin","μmol/L",,"5.1","20.5"
"01-003","Screening","0","2015-08-13","1","Blood","WBC count","x 109 cells/L",,"4.5","11"
"01-003","Visit 1","1","2015-10-06","55","Serum","Albumin","g/L",47.0953562493061,"35","55"
"01-003","Visit 1","1","2015-10-06","55","Urine","Albumin/Creatinine","mg/g",36.3504622830802,"0","30"
"01-003","Visit 1","1","2015-10-06","55","Serum","Alkaline phosphatase (ALP)","μkat/L",0.744098424062294,"0.5","1.5"
"01-003","Visit 1","1","2015-10-06","55","Serum","Aminotransferase, alanine (ALT)","pkat/L",0.0273696140472089,"0","0.58"
"01-003","Visit 1","1","2015-10-06","55","Serum","Aminotransferase, aspartate (AST)","pkat/L",0.189060691988135,"0","0.58"
"01-003","Visit 1","1","2015-10-06","55","Serum","Bicarbonate","mmol/L",30.5250336167885,"23","28"
"01-003","Visit 1","1","2015-10-06","55","Serum","Blood Urea Nitrogen","mmol/L",3.87223169397375,"2.9","7.1"
"01-003","Visit 1","1","2015-10-06","55","Serum","Calcium","mmol/L",2.21824774031545,"2.2","2.6"
"01-003","Visit 1","1","2015-10-06","55","Serum","Chloride","mmol/L",103.247571271161,"98","106"
"01-003","Visit 1","1","2015-10-06","55","Serum","Creatinine","μmol/L",83.0391976804046,"61.9","115"
"01-003","Visit 1","1","2015-10-06","55","Serum","Cystatin C","mg/L",0.619816491155316,"0.51","0.98"
"01-003","Visit 1","1","2015-10-06","55","Serum","Direct Bilirubin","μmol/L",0,"0","5.1"
"01-003","Visit 1","1","2015-10-06","55","Serum","eGFR","μmol/L",27.3377797451648,"61.9","115"
"01-003","Visit 1","1","2015-10-06","55","Serum","eGFRcys","μmol/L",146.063727228719,"61.9","115"
"01-003","Visit 1","1","2015-10-06","55","Serum","IgE","mg/L",0.11586901305358,"0.1","0.4"
"01-003","Visit 1","1","2015-10-06","55","Serum","Magnesium","mmol/L",,"0.62","0.99"
"01-003","Visit 1","1","2015-10-06","55","Serum","Phosphorus","mmol/L",0.941398638851208,"0.97","1.45"
"01-003","Visit 1","1","2015-10-06","55","Blood","Platelet count","x 109/L",151.702804047081,"150","350"
"01-003","Visit 1","1","2015-10-06","55","Serum","Potassium","mmol/L",4.36647080860405,"3.5","5"
"01-003","Visit 1","1","2015-10-06","55","Blood","RBC count","x 1012 cells/L",3.55325644891869,"4.2","5.9"
"01-003","Visit 1","1","2015-10-06","55","Serum","Sodium","mmol/L",138.394764826726,"136","145"
"01-003","Visit 1","1","2015-10-06","55","Serum","Total Bilirubin","μmol/L",24.2129979855207,"5.1","20.5"
"01-003","Visit 1","1","2015-10-06","55","Blood","WBC count","x 109 cells/L",6.09732515475325,"4.5","11"
"01-003","Visit 2","2","2015-12-04","114","Serum","Albumin","g/L",38.6664855109396,"35","55"
"01-003","Visit 2","2","2015-12-04","114","Urine","Albumin/Creatinine","mg/g",2.65547477088867,"0","30"
"01-003","Visit 2","2","2015-12-04","114","Serum","Alkaline phosphatase (ALP)","μkat/L",1.56195428867364,"0.5","1.5"
"01-003","Visit 2","2","2015-12-04","114","Serum","Aminotransferase, alanine (ALT)","pkat/L",0.376151129378731,"0","0.58"
"01-003","Visit 2","2","2015-12-04","114","Serum","Aminotransferase, aspartate (AST)","pkat/L",,"0","0.58"
"01-003","Visit 2","2","2015-12-04","114","Serum","Bicarbonate","mmol/L",22.0774640951109,"23","28"
"01-003","Visit 2","2","2015-12-04","114","Serum","Blood Urea Nitrogen","mmol/L",,"2.9","7.1"
"01-003","Visit 2","2","2015-12-04","114","Serum","Calcium","mmol/L",,"2.2","2.6"
"01-003","Visit 2","2","2015-12-04","114","Serum","Chloride","mmol/L",107.077085082429,"98","106"
"01-003","Visit 2","2","2015-12-04","114","Serum","Creatinine","μmol/L",94.5999719044282,"61.9","115"
"01-003","Visit 2","2","2015-12-04","114","Serum","Cystatin C","mg/L",1.24612137707472,"0.51","0.98"
"01-003","Visit 2","2","2015-12-04","114","Serum","Direct Bilirubin","μmol/L",4.41913642294601,"0","5.1"
"01-003","Visit 2","2","2015-12-04","114","Serum","eGFR","μmol/L",72.0149838731419,"61.9","115"
"01-003","Visit 2","2","2015-12-04","114","Serum","eGFRcys","μmol/L",103.714556192293,"61.9","115"
"01-003","Visit 2","2","2015-12-04","114","Serum","IgE","mg/L",0.45825353242898,"0.1","0.4"
"01-003","Visit 2","2","2015-12-04","114","Serum","Magnesium","mmol/L",,"0.62","0.99"
"01-003","Visit 2","2","2015-12-04","114","Serum","Phosphorus","mmol/L",1.45538226639588,"0.97","1.45"
"01-003","Visit 2","2","2015-12-04","114","Blood","Platelet count","x 109/L",92.3685737249629,"150","350"
"01-003","Visit 2","2","2015-12-04","114","Serum","Potassium","mmol/L",,"3.5","5"
"01-003","Visit 2","2","2015-12-04","114","Blood","RBC count","x 1012 cells/L",3.86290911933963,"4.2","5.9"
"01-003","Visit 2","2","2015-12-04","114","Serum","Sodium","mmol/L",136.63635158502,"136","145"
"01-003","Visit 2","2","2015-12-04","114","Serum","Total Bilirubin","μmol/L",8.20771792542688,"5.1","20.5"
"01-003","Visit 2","2","2015-12-04","114","Blood","WBC count","x 109 cells/L",6.44002667494746,"4.5","11"
"01-004","Screening","0","2015-01-12","1","Serum","Albumin","g/L",29.4986278908208,"35","55"
"01-004","Screening","0","2015-01-12","1","Urine","Albumin/Creatinine","mg/g",,"0","30"
"01-004","Screening","0","2015-01-12","1","Serum","Alkaline phosphatase (ALP)","μkat/L",1.06842028226213,"0.5","1.5"
"01-004","Screening","0","2015-01-12","1","Serum","Aminotransferase, alanine (ALT)","pkat/L",0.0132604010496946,"0","0.58"
"01-004","Screening","0","2015-01-12","1","Serum","Aminotransferase, aspartate (AST)","pkat/L",0,"0","0.58"
"01-004","Screening","0","2015-01-12","1","Serum","Bicarbonate","mmol/L",28.8671670665948,"23","28"
"01-004","Screening","0","2015-01-12","1","Serum","Blood Urea Nitrogen","mmol/L",,"2.9","7.1"
"01-004","Screening","0","2015-01-12","1","Serum","Calcium","mmol/L",2.26986252797545,"2.2","2.6"
"01-004","Screening","0","2015-01-12","1","Serum","Chloride","mmol/L",103.143659113252,"98","106"
"01-004","Screening","0","2015-01-12","1","Serum","Creatinine","μmol/L",105.145518118701,"61.9","115"
"01-004","Screening","0","2015-01-12","1","Serum","Cystatin C","mg/L",0.743877466795699,"0.51","0.98"
"01-004","Screening","0","2015-01-12","1","Serum","Direct Bilirubin","μmol/L",4.14407349008892,"0","5.1"
"01-004","Screening","0","2015-01-12","1","Serum","eGFR","μmol/L",138.267802115212,"61.9","115"
"01-004","Screening","0","2015-01-12","1","Serum","eGFRcys","μmol/L",102.631550699393,"61.9","115"
"01-004","Screening","0","2015-01-12","1","Serum","IgE","mg/L",0.348901763797342,"0.1","0.4"
"01-004","Screening","0","2015-01-12","1","Serum","Magnesium","mmol/L",0.680157852435846,"0.62","0.99"
"01-004","Screening","0","2015-01-12","1","Serum","Phosphorus","mmol/L",,"0.97","1.45"
"01-004","Screening","0","2015-01-12","1","Blood","Platelet count","x 109/L",247.778728154384,"150","350"
"01-004","Screening","0","2015-01-12","1","Serum","Potassium","mmol/L",3.37443743956636,"3.5","5"
"01-004","Screening","0","2015-01-12","1","Blood","RBC count","x 1012 cells/L",4.41302016469553,"4.2","5.9"
"01-004","Screening","0","2015-01-12","1","Serum","Sodium","mmol/L",142.261972228726,"136","145"
"01-004","Screening","0","2015-01-12","1","Serum","Total Bilirubin","μmol/L",,"5.1","20.5"
"01-004","Screening","0","2015-01-12","1","Blood","WBC count","x 109 cells/L",,"4.5","11"
"01-005","Screening","0","2015-11-11","1","Serum","Albumin","g/L",,"35","55"
"01-005","Screening","0","2015-11-11","1","Urine","Albumin/Creatinine","mg/g",,"0","30"
"01-005","Screening","0","2015-11-11","1","Serum","Alkaline phosphatase (ALP)","μkat/L",0.424227400152902,"0.5","1.5"
"01-005","Screening","0","2015-11-11","1","Serum","Aminotransferase, alanine (ALT)","pkat/L",0.467360327325045,"0","0.58"
"01-005","Screening","0","2015-11-11","1","Serum","Aminotransferase, aspartate (AST)","pkat/L",0.163880159779162,"0","0.58"
"01-005","Screening","0","2015-11-11","1","Serum","Bicarbonate","mmol/L",24.4993325125641,"23","28"
"01-005","Screening","0","2015-11-11","1","Serum","Blood Urea Nitrogen","mmol/L",,"2.9","7.1"
"01-005","Screening","0","2015-11-11","1","Serum","Calcium","mmol/L",2.29691946578997,"2.2","2.6"
"01-005","Screening","0","2015-11-11","1","Serum","Chloride","mmol/L",104.169632687025,"98","106"
"01-005","Screening","0","2015-11-11","1","Serum","Creatinine","μmol/L",67.4570941628712,"61.9","115"
"01-005","Screening","0","2015-11-11","1","Serum","Cystatin C","mg/L",0.638576200139556,"0.51","0.98"
"01-005","Screening","0","2015-11-11","1","Serum","Direct Bilirubin","μmol/L",5.84839680067593,"0","5.1"
"01-005","Screening","0","2015-11-11","1","Serum","eGFR","μmol/L",50.3842169959582,"61.9","115"
"01-005","Screening","0","2015-11-11","1","Serum","eGFRcys","μmol/L",60.5824119939444,"61.9","115"
"01-005","Screening","0","2015-11-11","1","Serum","IgE","mg/L",0.236562014697324,"0.1","0.4"
"01-005","Screening","0","2015-11-11","1","Serum","Magnesium","mmol/L",0.522525524015673,"0.62","0.99"
"01-005","Screening","0","2015-11-11","1","Serum","Phosphorus","mmol/L",,"0.97","1.45"
"01-005","Screening","0","2015-11-11","1","Blood","Platelet count","x 109/L",199.07774319753,"150","350"
"01-005","Screening","0","2015-11-11","1","Serum","Potassium","mmol/L",3.71920823512599,"3.5","5"
"01-005","Screening","0","2015-11-11","1","Blood","RBC count","x 1012 cells/L",5.6132736909728,"4.2","5.9"
"01-005","Screening","0","2015-11-11","1","Serum","Sodium","mmol/L",147.000693790904,"136","145"
"01-005","Screening","0","2015-11-11","1","Serum","Total Bilirubin","μmol/L",,"5.1","20.5"
"01-005","Screening","0","2015-11-11","1","Blood","WBC count","x 109 cells/L",,"4.5","11"
"01-005","Visit 1","1","2016-01-02","53","Serum","Albumin","g/L",24.5427210495355,"35","55"
"01-005","Visit 1","1","2016-01-02","53","Urine","Albumin/Creatinine","mg/g",3.47848722569602,"0","30"
"01-005","Visit 1","1","2016-01-02","53","Serum","Alkaline phosphatase (ALP)","μkat/L",0.820885685739276,"0.5","1.5"
"01-005","Visit 1","1","2016-01-02","53","Serum","Aminotransferase, alanine (ALT)","pkat/L",0.303403968449316,"0","0.58"
"01-005","Visit 1","1","2016-01-02","53","Serum","Aminotransferase, aspartate (AST)","pkat/L",0.0422203596639469,"0","0.58"
"01-005","Visit 1","1","2016-01-02","53","Serum","Bicarbonate","mmol/L",20.1768173001725,"23","28"
"01-005","Visit 1","1","2016-01-02","53","Serum","Blood Urea Nitrogen","mmol/L",5.68579754089861,"2.9","7.1"
"01-005","Visit 1","1","2016-01-02","53","Serum","Calcium","mmol/L",2.11397357793448,"2.2","2.6"
"01-005","Visit 1","1","2016-01-02","53","Serum","Chloride","mmol/L",100.747902567628,"98","106"
"01-005","Visit 1","1","2016-01-02","53","Serum","Creatinine","μmol/L",66.5393234756258,"61.9","115"
"01-005","Visit 1","1","2016-01-02","53","Serum","Cystatin C","mg/L",0.869587573490161,"0.51","0.98"
"01-005","Visit 1","1","2016-01-02","53","Serum","Direct Bilirubin","μmol/L",8.23947918522017,"0","5.1"
"01-005","Visit 1","1","2016-01-02","53","Serum","eGFR","μmol/L",21.5145841205482,"61.9","115"
"01-005","Visit 1","1","2016-01-02","53","Serum","eGFRcys","μmol/L",86.9185853833983,"61.9","115"
"01-005","Visit 1","1","2016-01-02","53","Serum","IgE","mg/L",0.36371904351584,"0.1","0.4"
"01-005","Visit 1","1","2016-01-02","53","Serum","Magnesium","mmol/L",0.457192045360382,"0.62","0.99"
"01-005","Visit 1","1","2016-01-02","53","Serum","Phosphorus","mmol/L",1.460194768379,"0.97","1.45"
"01-005","Visit 1","1","2016-01-02","53","Blood","Platelet count","x 109/L",335.740017387678,"150","350"
"01-005","Visit 1","1","2016-01-02","53","Serum","Potassium","mmol/L",6.03393555027978,"3.5","5"
"01-005","Visit 1","1","2016-01-02","53","Blood","RBC count","x 1012 cells/L",5.44850812689704,"4.2","5.9"
"01-005","Visit 1","1","2016-01-02","53","Serum","Sodium","mmol/L",144.96389348871,"136","145"
"01-005","Visit 1","1","2016-01-02","53","Serum","Total Bilirubin","μmol/L",18.15922782881,"5.1","20.5"
"01-005","Visit 1","1","2016-01-02","53","Blood","WBC count","x 109 cells/L",8.61248267865087,"4.5","11"
"01-008","Screening","0","2015-11-21","1","Serum","Albumin","g/L",24.1273365858142,"35","55"
"01-008","Screening","0","2015-11-21","1","Urine","Albumin/Creatinine","mg/g",,"0","30"
"01-008","Screening","0","2015-11-21","1","Serum","Alkaline phosphatase (ALP)","μkat/L",1.77951882609975,"0.5","1.5"
"01-008","Screening","0","2015-11-21","1","Serum","Aminotransferase, alanine (ALT)","pkat/L",0.529800653166828,"0","0.58"
"01-008","Screening","0","2015-11-21","1","Serum","Aminotransferase, aspartate (AST)","pkat/L",0.520900810934053,"0","0.58"
"01-008","Screening","0","2015-11-21","1","Serum","Bicarbonate","mmol/L",28.1398986557913,"23","28"
"01-008","Screening","0","2015-11-21","1","Serum","Blood Urea Nitrogen","mmol/L",,"2.9","7.1"
"01-008","Screening","0","2015-11-21","1","Serum","Calcium","mmol/L",2.33923612936159,"2.2","2.6"
"01-008","Screening","0","2015-11-21","1","Serum","Chloride","mmol/L",95.1114172909775,"98","106"
"01-008","Screening","0","2015-11-21","1","Serum","Creatinine","μmol/L",74.4243818385769,"61.9","115"
"01-008","Screening","0","2015-11-21","1","Serum","Cystatin C","mg/L",0.946607302613028,"0.51","0.98"
"01-008","Screening","0","2015-11-21","1","Serum","Direct Bilirubin","μmol/L",0,"0","5.1"
"01-008","Screening","0","2015-11-21","1","Serum","eGFR","μmol/L",83.5499901351436,"61.9","115"
"01-008","Screening","0","2015-11-21","1","Serum","eGFRcys","μmol/L",78.2830088449328,"61.9","115"
"01-008","Screening","0","2015-11-21","1","Serum","IgE","mg/L",0.347912271386179,"0.1","0.4"
"01-008","Screening","0","2015-11-21","1","Serum","Magnesium","mmol/L",1.19692455533731,"0.62","0.99"
"01-008","Screening","0","2015-11-21","1","Serum","Phosphorus","mmol/L",,"0.97","1.45"
"01-008","Screening","0","2015-11-21","1","Blood","Platelet count","x 109/L",324.122833499555,"150","350"
"01-008","Screening","0","2015-11-21","1","Serum","Potassium","mmol/L",6.57499317102939,"3.5","5"
"01-008","Screening","0","2015-11-21","1","Blood","RBC count","x 1012 cells/L",4.46779194291954,"4.2","5.9"
"01-008","Screening","0","2015-11-21","1","Serum","Sodium","mmol/L",128.055774000299,"136","145"
"01-008","Screening","0","2015-11-21","1","Serum","Total Bilirubin","μmol/L",,"5.1","20.5"
"01-008","Screening","0","2015-11-21","1","Blood","WBC count","x 109 cells/L",,"4.5","11"
"01-009","Screening","0","2015-11-25","1","Serum","Albumin","g/L",45.7029419004052,"35","55"
"01-009","Screening","0","2015-11-25","1","Urine","Albumin/Creatinine","mg/g",,"0","30"
"01-009","Screening","0","2015-11-25","1","Serum","Alkaline phosphatase (ALP)","μkat/L",0.735612851168327,"0.5","1.5"
"01-009","Screening","0","2015-11-25","1","Serum","Aminotransferase, alanine (ALT)","pkat/L",0.462443414001745,"0","0.58"
"01-009","Screening","0","2015-11-25","1","Serum","Aminotransferase, aspartate (AST)","pkat/L",0.502560133933733,"0","0.58"
"01-009","Screening","0","2015-11-25","1","Serum","Bicarbonate","mmol/L",22.1529910197219,"23","28"
"01-009","Screening","0","2015-11-25","1","Serum","Blood Urea Nitrogen","mmol/L",,"2.9","7.1"
"01-009","Screening","0","2015-11-25","1","Serum","Calcium","mmol/L",2.65553967886533,"2.2","2.6"
"01-009","Screening","0","2015-11-25","1","Serum","Chloride","mmol/L",99.92434436926,"98","106"
"01-009","Screening","0","2015-11-25","1","Serum","Creatinine","μmol/L",115.059211253081,"61.9","115"
"01-009","Screening","0","2015-11-25","1","Serum","Cystatin C","mg/L",0.726853070216671,"0.51","0.98"
"01-009","Screening","0","2015-11-25","1","Serum","Direct Bilirubin","μmol/L",1.46881696714481,"0","5.1"
"01-009","Screening","0","2015-11-25","1","Serum","eGFR","μmol/L",111.700758387766,"61.9","115"
"01-009","Screening","0","2015-11-25","1","Serum","eGFRcys","μmol/L",94.6620211498166,"61.9","115"
"01-009","Screening","0","2015-11-25","1","Serum","IgE","mg/L",0.325989804095117,"0.1","0.4"
"01-009","Screening","0","2015-11-25","1","Serum","Magnesium","mmol/L",0.642853489008112,"0.62","0.99"
"01-009","Screening","0","2015-11-25","1","Serum","Phosphorus","mmol/L",,"0.97","1.45"
"01-009","Screening","0","2015-11-25","1","Blood","Platelet count","x 109/L",170.894940919894,"150","350"
"01-009","Screening","0","2015-11-25","1","Serum","Potassium","mmol/L",3.5267873268528,"3.5","5"
"01-009","Screening","0","2015-11-25","1","Blood","RBC count","x 1012 cells/L",5.43934345597434,"4.2","5.9"
"01-009","Screening","0","2015-11-25","1","Serum","Sodium","mmol/L",133.054889451624,"136","145"
"01-009","Screening","0","2015-11-25","1","Serum","Total Bilirubin","μmol/L",,"5.1","20.5"
"01-009","Screening","0","2015-11-25","1","Blood","WBC count","x 109 cells/L",,"4.5","11"
"01-009","Visit 2","2","2016-03-18","115","Serum","Albumin","g/L",69.7888996740508,"35","55"
"01-009","Visit 2","2","2016-03-18","115","Urine","Albumin/Creatinine","mg/g",30.1372744632699,"0","30"
"01-009","Visit 2","2","2016-03-18","115","Serum","Alkaline phosphatase (ALP)","μkat/L",0.877914015583817,"0.5","1.5"
"01-009","Visit 2","2","2016-03-18","115","Serum","Aminotransferase, alanine (ALT)","pkat/L",0.303162116332068,"0","0.58"
"01-009","Visit 2","2","2016-03-18","115","Serum","Aminotransferase, aspartate (AST)","pkat/L",,"0","0.58"
"01-009","Visit 2","2","2016-03-18","115","Serum","Bicarbonate","mmol/L",25.6649790183355,"23","28"
"01-009","Visit 2","2","2016-03-18","115","Serum","Blood Urea Nitrogen","mmol/L",,"2.9","7.1"
"01-009","Visit 2","2","2016-03-18","115","Serum","Calcium","mmol/L",,"2.2","2.6"
"01-009","Visit 2","2","2016-03-18","115","Serum","Chloride","mmol/L",96.9002445888263,"98","106"
"01-009","Visit 2","2","2016-03-18","115","Serum","Creatinine","μmol/L",94.9857683688468,"61.9","115"
"01-009","Visit 2","2","2016-03-18","115","Serum","Cystatin C","mg/L",1.01725371263799,"0.51","0.98"
"01-009","Visit 2","2","2016-03-18","115","Serum","Direct Bilirubin","μmol/L",0,"0","5.1"
"01-009","Visit 2","2","2016-03-18","115","Serum","eGFR","μmol/L",90.2764257104585,"61.9","115"
"01-009","Visit 2","2","2016-03-18","115","Serum","eGFRcys","μmol/L",67.9798613117987,"61.9","115"
"01-009","Visit 2","2","2016-03-18","115","Serum","IgE","mg/L",0.537176580655709,"0.1","0.4"
"01-009","Visit 2","2","2016-03-18","115","Serum","Magnesium","mmol/L",,"0.62","0.99"
"01-009","Visit 2","2","2016-03-18","115","Serum","Phosphorus","mmol/L",1.45737206992023,"0.97","1.45"
"01-009","Visit 2","2","2016-03-18","115","Blood","Platelet count","x 109/L",126.399615671457,"150","350"
"01-009","Visit 2","2","2016-03-18","115","Serum","Potassium","mmol/L",,"3.5","5"
"01-009","Visit 2","2","2016-03-18","115","Blood","RBC count","x 1012 cells/L",4.82525955224899,"4.2","5.9"
"01-009","Visit 2","2","2016-03-18","115","Serum","Sodium","mmol/L",135.918713946005,"136","145"
"01-009","Visit 2","2","2016-03-18","115","Serum","Total Bilirubin","μmol/L",8.23465956805718,"5.1","20.5"
"01-009","Visit 2","2","2016-03-18","115","Blood","WBC count","x 109 cells/L",5.923912302336,"4.5","11"
"01-009","Visit 3","3","2016-05-06","164","Serum","Albumin","g/L",54.9174067716569,"35","55"
"01-009","Visit 3","3","2016-05-06","164","Urine","Albumin/Creatinine","mg/g",0,"0","30"
"01-009","Visit 3","3","2016-05-06","164","Serum","Alkaline phosphatase (ALP)","μkat/L",,"0.5","1.5"
"01-009","Visit 3","3","2016-05-06","164","Serum","Aminotransferase, alanine (ALT)","pkat/L",0.0659877104324427,"0","0.58"
"01-009","Visit 3","3","2016-05-06","164","Serum","Aminotransferase, aspartate (AST)","pkat/L",0.0922433481639083,"0","0.58"
"01-009","Visit 3","3","2016-05-06","164","Serum","Bicarbonate","mmol/L",25.4842670319616,"23","28"
"01-009","Visit 3","3","2016-05-06","164","Serum","Blood Urea Nitrogen","mmol/L",8.76105539827768,"2.9","7.1"
"01-009","Visit 3","3","2016-05-06","164","Serum","Calcium","mmol/L",1.81629830699698,"2.2","2.6"
"01-009","Visit 3","3","2016-05-06","164","Serum","Chloride","mmol/L",105.605537350122,"98","106"
"01-009","Visit 3","3","2016-05-06","164","Serum","Creatinine","μmol/L",102.473648925125,"61.9","115"
"01-009","Visit 3","3","2016-05-06","164","Serum","Cystatin C","mg/L",0.337569589408711,"0.51","0.98"
"01-009","Visit 3","3","2016-05-06","164","Serum","Direct Bilirubin","μmol/L",3.5191850394994,"0","5.1"
"01-009","Visit 3","3","2016-05-06","164","Serum","eGFR","μmol/L",104.647563689202,"61.9","115"
"01-009","Visit 3","3","2016-05-06","164","Serum","eGFRcys","μmol/L",59.2010738523069,"61.9","115"
"01-009","Visit 3","3","2016-05-06","164","Serum","IgE","mg/L",0.426066010175675,"0.1","0.4"
"01-009","Visit 3","3","2016-05-06","164","Serum","Magnesium","mmol/L",0.521836358782994,"0.62","0.99"
"01-009","Visit 3","3","2016-05-06","164","Serum","Phosphorus","mmol/L",1.30208470940071,"0.97","1.45"
"01-009","Visit 3","3","2016-05-06","164","Blood","Platelet count","x 109/L",229.928037091179,"150","350"
"01-009","Visit 3","3","2016-05-06","164","Serum","Potassium","mmol/L",4.59490427861917,"3.5","5"
"01-009","Visit 3","3","2016-05-06","164","Blood","RBC count","x 1012 cells/L",,"4.2","5.9"
"01-009","Visit 3","3","2016-05-06","164","Serum","Sodium","mmol/L",144.749639532898,"136","145"
"01-009","Visit 3","3","2016-05-06","164","Serum","Total Bilirubin","μmol/L",3.24912348474163,"5.1","20.5"
"01-009","Visit 3","3","2016-05-06","164","Blood","WBC count","x 109 cells/L",,"4.5","11"
"01-010","Screening","0","2015-01-06","1","Serum","Albumin","g/L",39.4525848632324,"35","55"
"01-010","Screening","0","2015-01-06","1","Urine","Albumin/Creatinine","mg/g",,"0","30"
"01-010","Screening","0","2015-01-06","1","Serum","Alkaline phosphatase (ALP)","μkat/L",1.73103811910479,"0.5","1.5"
"01-010","Screening","0","2015-01-06","1","Serum","Aminotransferase, alanine (ALT)","pkat/L",0.0733426906611916,"0","0.58"
"01-010","Screening","0","2015-01-06","1","Serum","Aminotransferase, aspartate (AST)","pkat/L",0.969551010368796,"0","0.58"
"01-010","Screening","0","2015-01-06","1","Serum","Bicarbonate","mmol/L",24.74236608334,"23","28"
"01-010","Screening","0","2015-01-06","1","Serum","Blood Urea Nitrogen","mmol/L",,"2.9","7.1"
"01-010","Screening","0","2015-01-06","1","Serum","Calcium","mmol/L",2.33249332378392,"2.2","2.6"
"01-010","Screening","0","2015-01-06","1","Serum","Chloride","mmol/L",102.758864952147,"98","106"
"01-010","Screening","0","2015-01-06","1","Serum","Creatinine","μmol/L",88.9277305470529,"61.9","115"
"01-010","Screening","0","2015-01-06","1","Serum","Cystatin C","mg/L",0.893864392566729,"0.51","0.98"
"01-010","Screening","0","2015-01-06","1","Serum","Direct Bilirubin","μmol/L",2.62963578008034,"0","5.1"
"01-010","Screening","0","2015-01-06","1","Serum","eGFR","μmol/L",90.4234877370513,"61.9","115"
"01-010","Screening","0","2015-01-06","1","Serum","eGFRcys","μmol/L",46.7500921810362,"61.9","115"
"01-010","Screening","0","2015-01-06","1","Serum","IgE","mg/L",0.224429248084139,"0.1","0.4"
"01-010","Screening","0","2015-01-06","1","Serum","Magnesium","mmol/L",0.884829105971754,"0.62","0.99"
"01-010","Screening","0","2015-01-06","1","Serum","Phosphorus","mmol/L",,"0.97","1.45"
"01-010","Screening","0","2015-01-06","1","Blood","Platelet count","x 109/L",292.231085543996,"150","350"
"01-010","Screening","0","2015-01-06","1","Serum","Potassium","mmol/L",5.02666251145103,"3.5","5"
"01-010","Screening","0","2015-01-06","1","Blood","RBC count","x 1012 cells/L",7.89669554841737,"4.2","5.9"
"01-010","Screening","0","2015-01-06","1","Serum","Sodium","mmol/L",145.984206048556,"136","145"
"01-010","Screening","0","2015-01-06","1","Serum","Total Bilirubin","μmol/L",,"5.1","20.5"
"01-010","Screening","0","2015-01-06","1","Blood","WBC count","x 109 cells/L",,"4.5","11"
"01-010","Visit 1","1","2015-02-26","52","Serum","Albumin","g/L",44.5820817782363,"35","55"
"01-010","Visit 1","1","2015-02-26","52","Urine","Albumin/Creatinine","mg/g",11.4302226502851,"0","30"
"01-010","Visit 1","1","2015-02-26","52","Serum","Alkaline phosphatase (ALP)","μkat/L",,"0.5","1.5"
"01-010","Visit 1","1","2015-02-26","52","Serum","Aminotransferase, alanine (ALT)","pkat/L",0.480864529477909,"0","0.58"
"01-010","Visit 1","1","2015-02-26","52","Serum","Aminotransferase, aspartate (AST)","pkat/L",0,"0","0.58"
"01-010","Visit 1","1","2015-02-26","52","Serum","Bicarbonate","mmol/L",21.720905459089,"23","28"
"01-010","Visit 1","1","2015-02-26","52","Serum","Blood Urea Nitrogen","mmol/L",8.67322432758233,"2.9","7.1"
"01-010","Visit 1","1","2015-02-26","52","Serum","Calcium","mmol/L",2.85790964806187,"2.2","2.6"
"01-010","Visit 1","1","2015-02-26","52","Serum","Chloride","mmol/L",98.7870255474392,"98","106"
"01-010","Visit 1","1","2015-02-26","52","Serum","Creatinine","μmol/L",67.8986845806728,"61.9","115"
"01-010","Visit 1","1","2015-02-26","52","Serum","Cystatin C","mg/L",0.546506806044327,"0.51","0.98"
"01-010","Visit 1","1","2015-02-26","52","Serum","Direct Bilirubin","μmol/L",7.63824382581563,"0","5.1"
"01-010","Visit 1","1","2015-02-26","52","Serum","eGFR","μmol/L",69.1043340494889,"61.9","115"
"01-010","Visit 1","1","2015-02-26","52","Serum","eGFRcys","μmol/L",87.4158507420215,"61.9","115"
"01-010","Visit 1","1","2015-02-26","52","Serum","IgE","mg/L",0.1063656131964,"0.1","0.4"
"01-010","Visit 1","1","2015-02-26","52","Serum","Magnesium","mmol/L",0.905159006572952,"0.62","0.99"
"01-010","Visit 1","1","2015-02-26","52","Serum","Phosphorus","mmol/L",1.07746754029282,"0.97","1.45"
"01-010","Visit 1","1","2015-02-26","52","Blood","Platelet count","x 109/L",231.666756419694,"150","350"
"01-010","Visit 1","1","2015-02-26","52","Serum","Potassium","mmol/L",2.21373773654762,"3.5","5"
"01-010","Visit 1","1","2015-02-26","52","Blood","RBC count","x 1012 cells/L",5.70261208429095,"4.2","5.9"
"01-010","Visit 1","1","2015-02-26","52","Serum","Sodium","mmol/L",140.38680083412,"136","145"
"01-010","Visit 1","1","2015-02-26","52","Serum","Total Bilirubin","μmol/L",0,"5.1","20.5"
"01-010","Visit 1","1","2015-02-26","52","Blood","WBC count","x 109 cells/L",2.85749010355554,"4.5","11"
"01-010","Visit 2","2","2015-04-28","113","Serum","Albumin","g/L",,"35","55"
"01-010","Visit 2","2","2015-04-28","113","Urine","Albumin/Creatinine","mg/g",37.3154918517105,"0","30"
"01-010","Visit 2","2","2015-04-28","113","Serum","Alkaline phosphatase (ALP)","μkat/L",0.227036627750416,"0.5","1.5"
"01-010","Visit 2","2","2015-04-28","113","Serum","Aminotransferase, alanine (ALT)","pkat/L",0.443973807718746,"0","0.58"
"01-010","Visit 2","2","2015-04-28","113","Serum","Aminotransferase, aspartate (AST)","pkat/L",,"0","0.58"
"01-010","Visit 2","2","2015-04-28","113","Serum","Bicarbonate","mmol/L",25.8684979969232,"23","28"
"01-010","Visit 2","2","2015-04-28","113","Serum","Blood Urea Nitrogen","mmol/L",,"2.9","7.1"
"01-010","Visit 2","2","2015-04-28","113","Serum","Calcium","mmol/L",,"2.2","2.6"
"01-010","Visit 2","2","2015-04-28","113","Serum","Chloride","mmol/L",102.699264450653,"98","106"
"01-010","Visit 2","2","2015-04-28","113","Serum","Creatinine","μmol/L",70.5966058405253,"61.9","115"
"01-010","Visit 2","2","2015-04-28","113","Serum","Cystatin C","mg/L",0.945137987563441,"0.51","0.98"
"01-010","Visit 2","2","2015-04-28","113","Serum","Direct Bilirubin","μmol/L",0,"0","5.1"
"01-010","Visit 2","2","2015-04-28","113","Serum","eGFR","μmol/L",79.2292729441401,"61.9","115"
"01-010","Visit 2","2","2015-04-28","113","Serum","eGFRcys","μmol/L",70.0425276738378,"61.9","115"
"01-010","Visit 2","2","2015-04-28","113","Serum","IgE","mg/L",0,"0.1","0.4"
"01-010","Visit 2","2","2015-04-28","113","Serum","Magnesium","mmol/L",,"0.62","0.99"
"01-010","Visit 2","2","2015-04-28","113","Serum","Phosphorus","mmol/L",1.64658587970773,"0.97","1.45"
"01-010","Visit 2","2","2015-04-28","113","Blood","Platelet count","x 109/L",263.604070890494,"150","350"
"01-010","Visit 2","2","2015-04-28","113","Serum","Potassium","mmol/L",,"3.5","5"
"01-010","Visit 2","2","2015-04-28","113","Blood","RBC count","x 1012 cells/L",,"4.2","5.9"
"01-010","Visit 2","2","2015-04-28","113","Serum","Sodium","mmol/L",135.40154125231,"136","145"
"01-010","Visit 2","2","2015-04-28","113","Serum","Total Bilirubin","μmol/L",7.03080816848502,"5.1","20.5"
"01-010","Visit 2","2","2015-04-28","113","Blood","WBC count","x 109 cells/L",9.15115260968983,"4.5","11"
"01-011","Screening","0","2015-10-04","1","Serum","Albumin","g/L",35.7543110181612,"35","55"
"01-011","Screening","0","2015-10-04","1","Urine","Albumin/Creatinine","mg/g",,"0","30"
"01-011","Screening","0","2015-10-04","1","Serum","Alkaline phosphatase (ALP)","μkat/L",0.654991937188416,"0.5","1.5"
"01-011","Screening","0","2015-10-04","1","Serum","Aminotransferase, alanine (ALT)","pkat/L",0,"0","0.58"
"01-011","Screening","0","2015-10-04","1","Serum","Aminotransferase, aspartate (AST)","pkat/L",0.30679881528667,"0","0.58"
"01-011","Screening","0","2015-10-04","1","Serum","Bicarbonate","mmol/L",25.2278675999936,"23","28"
"01-011","Screening","0","2015-10-04","1","Serum","Blood Urea Nitrogen","mmol/L",,"2.9","7.1"
"01-011","Screening","0","2015-10-04","1","Serum","Calcium","mmol/L",2.41820421721609,"2.2","2.6"
"01-011","Screening","0","2015-10-04","1","Serum","Chloride","mmol/L",109.556578877959,"98","106"
"01-011","Screening","0","2015-10-04","1","Serum","Creatinine","μmol/L",86.920595012322,"61.9","115"
"01-011","Screening","0","2015-10-04","1","Serum","Cystatin C","mg/L",0.808016456573621,"0.51","0.98"
"01-011","Screening","0","2015-10-04","1","Serum","Direct Bilirubin","μmol/L",1.97370126185538,"0","5.1"
"01-011","Screening","0","2015-10-04","1","Serum","eGFR","μmol/L",81.0457067863214,"61.9","115"
"01-011","Screening","0","2015-10-04","1","Serum","eGFRcys","μmol/L",64.0914534791872,"61.9","115"
"01-011","Screening","0","2015-10-04","1","Serum","IgE","mg/L",0.235951995141738,"0.1","0.4"
"01-011","Screening","0","2015-10-04","1","Serum","Magnesium","mmol/L",0.837652928439079,"0.62","0.99"
"01-011","Screening","0","2015-10-04","1","Serum","Phosphorus","mmol/L",,"0.97","1.45"
"01-011","Screening","0","2015-10-04","1","Blood","Platelet count","x 109/L",179.103914929833,"150","350"
"01-011","Screening","0","2015-10-04","1","Serum","Potassium","mmol/L",4.99945910940677,"3.5","5"
"01-011","Screening","0","2015-10-04","1","Blood","RBC count","x 1012 cells/L",4.5205001771342,"4.2","5.9"
"01-011","Screening","0","2015-10-04","1","Serum","Sodium","mmol/L",145.272697766101,"136","145"
"01-011","Screening","0","2015-10-04","1","Serum","Total Bilirubin","μmol/L",,"5.1","20.5"
"01-011","Screening","0","2015-10-04","1","Blood","WBC count","x 109 cells/L",,"4.5","11"
"01-012","Screening","0","2015-04-18","1","Serum","Albumin","g/L",51.3093866630655,"35","55"
"01-012","Screening","0","2015-04-18","1","Urine","Albumin/Creatinine","mg/g",,"0","30"
"01-012","Screening","0","2015-04-18","1","Serum","Alkaline phosphatase (ALP)","μkat/L",0.295987623060549,"0.5","1.5"
"01-012","Screening","0","2015-04-18","1","Serum","Aminotransferase, alanine (ALT)","pkat/L",0.132041478003102,"0","0.58"
"01-012","Screening","0","2015-04-18","1","Serum","Aminotransferase, aspartate (AST)","pkat/L",0.328208627221044,"0","0.58"
"01-012","Screening","0","2015-04-18","1","Serum","Bicarbonate","mmol/L",26.6981486715317,"23","28"
"01-012","Screening","0","2015-04-18","1","Serum","Blood Urea Nitrogen","mmol/L",,"2.9","7.1"
"01-012","Screening","0","2015-04-18","1","Serum","Calcium","mmol/L",2.12737304386461,"2.2","2.6"
"01-012","Screening","0","2015-04-18","1","Serum","Chloride","mmol/L",102.930986169763,"98","106"
"01-012","Screening","0","2015-04-18","1","Serum","Creatinine","μmol/L",100.316873998464,"61.9","115"
"01-012","Screening","0","2015-04-18","1","Serum","Cystatin C","mg/L",0.77358535049807,"0.51","0.98"
"01-012","Screening","0","2015-04-18","1","Serum","Direct Bilirubin","μmol/L",4.16176364361405,"0","5.1"
"01-012","Screening","0","2015-04-18","1","Serum","eGFR","μmol/L",120.020071309254,"61.9","115"
"01-012","Screening","0","2015-04-18","1","Serum","eGFRcys","μmol/L",118.543680081796,"61.9","115"
"01-012","Screening","0","2015-04-18","1","Serum","IgE","mg/L",0.0238999216650586,"0.1","0.4"
"01-012","Screening","0","2015-04-18","1","Serum","Magnesium","mmol/L",0.787712701528954,"0.62","0.99"
"01-012","Screening","0","2015-04-18","1","Serum","Phosphorus","mmol/L",,"0.97","1.45"
"01-012","Screening","0","2015-04-18","1","Blood","Platelet count","x 109/L",211.107927798053,"150","350"
"01-012","Screening","0","2015-04-18","1","Serum","Potassium","mmol/L",,"3.5","5"
"01-012","Screening","0","2015-04-18","1","Blood","RBC count","x 1012 cells/L",5.85439651548177,"4.2","5.9"
"01-012","Screening","0","2015-04-18","1","Serum","Sodium","mmol/L",146.761935834156,"136","145"
"01-012","Screening","0","2015-04-18","1","Serum","Total Bilirubin","μmol/L",,"5.1","20.5"
"01-012","Screening","0","2015-04-18","1","Blood","WBC count","x 109 cells/L",,"4.5","11"
"01-012","Visit 1","1","2015-06-11","55","Serum","Albumin","g/L",46.4441658050604,"35","55"
"01-012","Visit 1","1","2015-06-11","55","Urine","Albumin/Creatinine","mg/g",7.47981958276851,"0","30"
"01-012","Visit 1","1","2015-06-11","55","Serum","Alkaline phosphatase (ALP)","μkat/L",0.501749746985348,"0.5","1.5"
"01-012","Visit 1","1","2015-06-11","55","Serum","Aminotransferase, alanine (ALT)","pkat/L",0.490915369525004,"0","0.58"
"01-012","Visit 1","1","2015-06-11","55","Serum","Aminotransferase, aspartate (AST)","pkat/L",0.569484339997686,"0","0.58"
"01-012","Visit 1","1","2015-06-11","55","Serum","Bicarbonate","mmol/L",23.2059764083757,"23","28"
"01-012","Visit 1","1","2015-06-11","55","Serum","Blood Urea Nitrogen","mmol/L",4.65615140936927,"2.9","7.1"
"01-012","Visit 1","1","2015-06-11","55","Serum","Calcium","mmol/L",2.51869704331853,"2.2","2.6"
"01-012","Visit 1","1","2015-06-11","55","Serum","Chloride","mmol/L",95.7031390358491,"98","106"
"01-012","Visit 1","1","2015-06-11","55","Serum","Creatinine","μmol/L",42.5572215461226,"61.9","115"
"01-012","Visit 1","1","2015-06-11","55","Serum","Cystatin C","mg/L",0.36446083055056,"0.51","0.98"
"01-012","Visit 1","1","2015-06-11","55","Serum","Direct Bilirubin","μmol/L",4.95331235109166,"0","5.1"
"01-012","Visit 1","1","2015-06-11","55","Serum","eGFR","μmol/L",71.5792787444708,"61.9","115"
"01-012","Visit 1","1","2015-06-11","55","Serum","eGFRcys","μmol/L",106.924601370492,"61.9","115"
"01-012","Visit 1","1","2015-06-11","55","Serum","IgE","mg/L",0.283512993767671,"0.1","0.4"
"01-012","Visit 1","1","2015-06-11","55","Serum","Magnesium","mmol/L",0.826750767777048,"0.62","0.99"
"01-012","Visit 1","1","2015-06-11","55","Serum","Phosphorus","mmol/L",1.54871967480829,"0.97","1.45"
"01-012","Visit 1","1","2015-06-11","55","Blood","Platelet count","x 109/L",252.65358942659,"150","350"
"01-012","Visit 1","1","2015-06-11","55","Serum","Potassium","mmol/L",4.38486763189389,"3.5","5"
"01-012","Visit 1","1","2015-06-11","55","Blood","RBC count","x 1012 cells/L",5.61327871727934,"4.2","5.9"
"01-012","Visit 1","1","2015-06-11","55","Serum","Sodium","mmol/L",136.321123455791,"136","145"
"01-012","Visit 1","1","2015-06-11","55","Serum","Total Bilirubin","μmol/L",4.47300036828203,"5.1","20.5"
"01-012","Visit 1","1","2015-06-11","55","Blood","WBC count","x 109 cells/L",7.80271339876823,"4.5","11"
"01-012","Visit 2","2","2015-07-31","105","Serum","Albumin","g/L",44.5469718522452,"35","55"
"01-012","Visit 2","2","2015-07-31","105","Urine","Albumin/Creatinine","mg/g",13.9658790921555,"0","30"
"01-012","Visit 2","2","2015-07-31","105","Serum","Alkaline phosphatase (ALP)","μkat/L",1.47273534305099,"0.5","1.5"
"01-012","Visit 2","2","2015-07-31","105","Serum","Aminotransferase, alanine (ALT)","pkat/L",0.429915816060669,"0","0.58"
"01-012","Visit 2","2","2015-07-31","105","Serum","Aminotransferase, aspartate (AST)","pkat/L",,"0","0.58"
"01-012","Visit 2","2","2015-07-31","105","Serum","Bicarbonate","mmol/L",26.5046065434172,"23","28"
"01-012","Visit 2","2","2015-07-31","105","Serum","Blood Urea Nitrogen","mmol/L",,"2.9","7.1"
"01-012","Visit 2","2","2015-07-31","105","Serum","Calcium","mmol/L",,"2.2","2.6"
"01-012","Visit 2","2","2015-07-31","105","Serum","Chloride","mmol/L",99.6397124100049,"98","106"
"01-012","Visit 2","2","2015-07-31","105","Serum","Creatinine","μmol/L",121.582171927029,"61.9","115"
"01-012","Visit 2","2","2015-07-31","105","Serum","Cystatin C","mg/L",1.24105895647602,"0.51","0.98"
"01-012","Visit 2","2","2015-07-31","105","Serum","Direct Bilirubin","μmol/L",0,"0","5.1"
"01-012","Visit 2","2","2015-07-31","105","Serum","eGFR","μmol/L",57.5914891522375,"61.9","115"
"01-012","Visit 2","2","2015-07-31","105","Serum","eGFRcys","μmol/L",90.2230067080909,"61.9","115"
"01-012","Visit 2","2","2015-07-31","105","Serum","IgE","mg/L",0.14856478300794,"0.1","0.4"
"01-012","Visit 2","2","2015-07-31","105","Serum","Magnesium","mmol/L",,"0.62","0.99"
"01-012","Visit 2","2","2015-07-31","105","Serum","Phosphorus","mmol/L",1.14516037513535,"0.97","1.45"
"01-012","Visit 2","2","2015-07-31","105","Blood","Platelet count","x 109/L",184.104143574925,"150","350"
"01-012","Visit 2","2","2015-07-31","105","Serum","Potassium","mmol/L",,"3.5","5"
"01-012","Visit 2","2","2015-07-31","105","Blood","RBC count","x 1012 cells/L",5.7656124799142,"4.2","5.9"
"01-012","Visit 2","2","2015-07-31","105","Serum","Sodium","mmol/L",149.954367589258,"136","145"
"01-012","Visit 2","2","2015-07-31","105","Serum","Total Bilirubin","μmol/L",12.9800274380469,"5.1","20.5"
"01-012","Visit 2","2","2015-07-31","105","Blood","WBC count","x 109 cells/L",0.940517703642721,"4.5","11"
"01-012","Visit 3","3","2015-10-05","171","Serum","Albumin","g/L",41.4132058282866,"35","55"
"01-012","Visit 3","3","2015-10-05","171","Urine","Albumin/Creatinine","mg/g",29.0842418367609,"0","30"
"01-012","Visit 3","3","2015-10-05","171","Serum","Alkaline phosphatase (ALP)","μkat/L",,"0.5","1.5"
"01-012","Visit 3","3","2015-10-05","171","Serum","Aminotransferase, alanine (ALT)","pkat/L",0.56076094131793,"0","0.58"
"01-012","Visit 3","3","2015-10-05","171","Serum","Aminotransferase, aspartate (AST)","pkat/L",0,"0","0.58"
"01-012","Visit 3","3","2015-10-05","171","Serum","Bicarbonate","mmol/L",25.9357811735712,"23","28"
"01-012","Visit 3","3","2015-10-05","171","Serum","Blood Urea Nitrogen","mmol/L",5.55211543997584,"2.9","7.1"
"01-012","Visit 3","3","2015-10-05","171","Serum","Calcium","mmol/L",2.56248125895063,"2.2","2.6"
"01-012","Visit 3","3","2015-10-05","171","Serum","Chloride","mmol/L",103.71646604788,"98","106"
"01-012","Visit 3","3","2015-10-05","171","Serum","Creatinine","μmol/L",73.4478503224915,"61.9","115"
"01-012","Visit 3","3","2015-10-05","171","Serum","Cystatin C","mg/L",0.197648022212595,"0.51","0.98"
"01-012","Visit 3","3","2015-10-05","171","Serum","Direct Bilirubin","μmol/L",3.36480130926583,"0","5.1"
"01-012","Visit 3","3","2015-10-05","171","Serum","eGFR","μmol/L",41.4004889393676,"61.9","115"
"01-012","Visit 3","3","2015-10-05","171","Serum","eGFRcys","μmol/L",45.8776454821995,"61.9","115"
"01-012","Visit 3","3","2015-10-05","171","Serum","IgE","mg/L",0.390051755561521,"0.1","0.4"
"01-012","Visit 3","3","2015-10-05","171","Serum","Magnesium","mmol/L",0.705929341300757,"0.62","0.99"
"01-012","Visit 3","3","2015-10-05","171","Serum","Phosphorus","mmol/L",1.16344584108038,"0.97","1.45"
"01-012","Visit 3","3","2015-10-05","171","Blood","Platelet count","x 109/L",100.829505678303,"150","350"
"01-012","Visit 3","3","2015-10-05","171","Serum","Potassium","mmol/L",4.25879589569045,"3.5","5"
"01-012","Visit 3","3","2015-10-05","171","Blood","RBC count","x 1012 cells/L",,"4.2","5.9"
"01-012","Visit 3","3","2015-10-05","171","Serum","Sodium","mmol/L",139.973902460175,"136","145"
"01-012","Visit 3","3","2015-10-05","171","Serum","Total Bilirubin","μmol/L",12.9454463986439,"5.1","20.5"
"01-012","Visit 3","3","2015-10-05","171","Blood","WBC count","x 109 cells/L",,"4.5","11"
"01-012","Visit 4","4","2015-11-30","227","Serum","Albumin","g/L",,"35","55"
"01-012","Visit 4","4","2015-11-30","227","Urine","Albumin/Creatinine","mg/g",0,"0","30"
"01-012","Visit 4","4","2015-11-30","227","Serum","Alkaline phosphatase (ALP)","μkat/L",1.38718228213435,"0.5","1.5"
"01-012","Visit 4","4","2015-11-30","227","Serum","Aminotransferase, alanine (ALT)","pkat/L",0.477310876025826,"0","0.58"
"01-012","Visit 4","4","2015-11-30","227","Serum","Aminotransferase, aspartate (AST)","pkat/L",0.478555013202659,"0","0.58"
"01-012","Visit 4","4","2015-11-30","227","Serum","Bicarbonate","mmol/L",20.4578150272079,"23","28"
"01-012","Visit 4","4","2015-11-30","227","Serum","Blood Urea Nitrogen","mmol/L",6.45165147612248,"2.9","7.1"
"01-012","Visit 4","4","2015-11-30","227","Serum","Calcium","mmol/L",,"2.2","2.6"
"01-012","Visit 4","4","2015-11-30","227","Serum","Chloride","mmol/L",107.79307797506,"98","106"
"01-012","Visit 4","4","2015-11-30","227","Serum","Creatinine","μmol/L",106.81007175872,"61.9","115"
"01-012","Visit 4","4","2015-11-30","227","Serum","Cystatin C","mg/L",0.0480363125947283,"0.51","0.98"
"01-012","Visit 4","4","2015-11-30","227","Serum","Direct Bilirubin","μmol/L",1.28198372685215,"0","5.1"
"01-012","Visit 4","4","2015-11-30","227","Serum","eGFR","μmol/L",,"61.9","115"
"01-012","Visit 4","4","2015-11-30","227","Serum","eGFRcys","μmol/L",60.4755268132726,"61.9","115"
"01-012","Visit 4","4","2015-11-30","227","Serum","IgE","mg/L",0.2785893801681,"0.1","0.4"
"01-012","Visit 4","4","2015-11-30","227","Serum","Magnesium","mmol/L",0.666682093649684,"0.62","0.99"
"01-012","Visit 4","4","2015-11-30","227","Serum","Phosphorus","mmol/L",1.19085736024572,"0.97","1.45"
"01-012","Visit 4","4","2015-11-30","227","Blood","Platelet count","x 109/L",0,"150","350"
"01-012","Visit 4","4","2015-11-30","227","Serum","Potassium","mmol/L",3.64692890098116,"3.5","5"
"01-012","Visit 4","4","2015-11-30","227","Blood","RBC count","x 1012 cells/L",4.96329959889797,"4.2","5.9"
"01-012","Visit 4","4","2015-11-30","227","Serum","Sodium","mmol/L",146.77341507582,"136","145"
"01-012","Visit 4","4","2015-11-30","227","Serum","Total Bilirubin","μmol/L",3.78439492971457,"5.1","20.5"
"01-012","Visit 4","4","2015-11-30","227","Blood","WBC count","x 109 cells/L",0,"4.5","11"
"01-013","Screening","0","2015-07-15","1","Serum","Albumin","g/L",45.7724701777013,"35","55"
"01-013","Screening","0","2015-07-15","1","Urine","Albumin/Creatinine","mg/g",,"0","30"
"01-013","Screening","0","2015-07-15","1","Serum","Alkaline phosphatase (ALP)","μkat/L",1.08897894659,"0.5","1.5"
"01-013","Screening","0","2015-07-15","1","Serum","Aminotransferase, alanine (ALT)","pkat/L",0.50165085073773,"0","0.58"
"01-013","Screening","0","2015-07-15","1","Serum","Aminotransferase, aspartate (AST)","pkat/L",0.192225206345732,"0","0.58"
"01-013","Screening","0","2015-07-15","1","Serum","Bicarbonate","mmol/L",23.4215002296875,"23","28"
"01-013","Screening","0","2015-07-15","1","Serum","Blood Urea Nitrogen","mmol/L",,"2.9","7.1"
"01-013","Screening","0","2015-07-15","1","Serum","Calcium","mmol/L",2.83773346514105,"2.2","2.6"
"01-013","Screening","0","2015-07-15","1","Serum","Chloride","mmol/L",100.010364905152,"98","106"
"01-013","Screening","0","2015-07-15","1","Serum","Creatinine","μmol/L",92.8551843576573,"61.9","115"
"01-013","Screening","0","2015-07-15","1","Serum","Cystatin C","mg/L",0.967539027683171,"0.51","0.98"
"01-013","Screening","0","2015-07-15","1","Serum","Direct Bilirubin","μmol/L",2.83470409853098,"0","5.1"
"01-013","Screening","0","2015-07-15","1","Serum","eGFR","μmol/L",60.0184319568542,"61.9","115"
"01-013","Screening","0","2015-07-15","1","Serum","eGFRcys","μmol/L",100.537988249667,"61.9","115"
"01-013","Screening","0","2015-07-15","1","Serum","IgE","mg/L",0.20697574134074,"0.1","0.4"
"01-013","Screening","0","2015-07-15","1","Serum","Magnesium","mmol/L",0.78036306891619,"0.62","0.99"
"01-013","Screening","0","2015-07-15","1","Serum","Phosphorus","mmol/L",,"0.97","1.45"
"01-013","Screening","0","2015-07-15","1","Blood","Platelet count","x 109/L",261.324061477766,"150","350"
"01-013","Screening","0","2015-07-15","1","Serum","Potassium","mmol/L",3.71505474675226,"3.5","5"
"01-013","Screening","0","2015-07-15","1","Blood","RBC count","x 1012 cells/L",4.99889490054797,"4.2","5.9"
"01-013","Screening","0","2015-07-15","1","Serum","Sodium","mmol/L",,"136","145"
"01-013","Screening","0","2015-07-15","1","Serum","Total Bilirubin","μmol/L",,"5.1","20.5"
"01-013","Screening","0","2015-07-15","1","Blood","WBC count","x 109 cells/L",,"4.5","11"
"01-013","Visit 1","1","2015-09-15","63","Serum","Albumin","g/L",19.1614733269629,"35","55"
"01-013","Visit 1","1","2015-09-15","63","Urine","Albumin/Creatinine","mg/g",9.46365115617272,"0","30"
"01-013","Visit 1","1","2015-09-15","63","Serum","Alkaline phosphatase (ALP)","μkat/L",0.346124034413607,"0.5","1.5"
"01-013","Visit 1","1","2015-09-15","63","Serum","Aminotransferase, alanine (ALT)","pkat/L",0.587088487619581,"0","0.58"
"01-013","Visit 1","1","2015-09-15","63","Serum","Aminotransferase, aspartate (AST)","pkat/L",0,"0","0.58"
"01-013","Visit 1","1","2015-09-15","63","Serum","Bicarbonate","mmol/L",24.8343579747167,"23","28"
"01-013","Visit 1","1","2015-09-15","63","Serum","Blood Urea Nitrogen","mmol/L",3.28353588651583,"2.9","7.1"
"01-013","Visit 1","1","2015-09-15","63","Serum","Calcium","mmol/L",2.37974473298099,"2.2","2.6"
"01-013","Visit 1","1","2015-09-15","63","Serum","Chloride","mmol/L",103.570857335438,"98","106"
"01-013","Visit 1","1","2015-09-15","63","Serum","Creatinine","μmol/L",99.7886186236701,"61.9","115"
"01-013","Visit 1","1","2015-09-15","63","Serum","Cystatin C","mg/L",0.382175361279834,"0.51","0.98"
"01-013","Visit 1","1","2015-09-15","63","Serum","Direct Bilirubin","μmol/L",,"0","5.1"
"01-013","Visit 1","1","2015-09-15","63","Serum","eGFR","μmol/L",99.1317793847082,"61.9","115"
"01-013","Visit 1","1","2015-09-15","63","Serum","eGFRcys","μmol/L",111.695653685121,"61.9","115"
"01-013","Visit 1","1","2015-09-15","63","Serum","IgE","mg/L",0.522205436864024,"0.1","0.4"
"01-013","Visit 1","1","2015-09-15","63","Serum","Magnesium","mmol/L",0.714529628661925,"0.62","0.99"
"01-013","Visit 1","1","2015-09-15","63","Serum","Phosphorus","mmol/L",1.71726307524141,"0.97","1.45"
"01-013","Visit 1","1","2015-09-15","63","Blood","Platelet count","x 109/L",349.271564959841,"150","350"
"01-013","Visit 1","1","2015-09-15","63","Serum","Potassium","mmol/L",5.08584670580719,"3.5","5"
"01-013","Visit 1","1","2015-09-15","63","Blood","RBC count","x 1012 cells/L",5.60543988092216,"4.2","5.9"
"01-013","Visit 1","1","2015-09-15","63","Serum","Sodium","mmol/L",148.496720350233,"136","145"
"01-013","Visit 1","1","2015-09-15","63","Serum","Total Bilirubin","μmol/L",8.62167539197207,"5.1","20.5"
"01-013","Visit 1","1","2015-09-15","63","Blood","WBC count","x 109 cells/L",8.58963798904441,"4.5","11"
"01-013","Visit 2","2","2015-11-04","113","Serum","Albumin","g/L",49.4690073269022,"35","55"
"01-013","Visit 2","2","2015-11-04","113","Urine","Albumin/Creatinine","mg/g",13.2297004542053,"0","30"
"01-013","Visit 2","2","2015-11-04","113","Serum","Alkaline phosphatase (ALP)","μkat/L",0.432983684456409,"0.5","1.5"
"01-013","Visit 2","2","2015-11-04","113","Serum","Aminotransferase, alanine (ALT)","pkat/L",1.03398149607274,"0","0.58"
"01-013","Visit 2","2","2015-11-04","113","Serum","Aminotransferase, aspartate (AST)","pkat/L",,"0","0.58"
"01-013","Visit 2","2","2015-11-04","113","Serum","Bicarbonate","mmol/L",24.7445063223523,"23","28"
"01-013","Visit 2","2","2015-11-04","113","Serum","Blood Urea Nitrogen","mmol/L",,"2.9","7.1"
"01-013","Visit 2","2","2015-11-04","113","Serum","Calcium","mmol/L",,"2.2","2.6"
"01-013","Visit 2","2","2015-11-04","113","Serum","Chloride","mmol/L",110.124385139991,"98","106"
"01-013","Visit 2","2","2015-11-04","113","Serum","Creatinine","μmol/L",98.5252460708808,"61.9","115"
"01-013","Visit 2","2","2015-11-04","113","Serum","Cystatin C","mg/L",0.669097898173597,"0.51","0.98"
"01-013","Visit 2","2","2015-11-04","113","Serum","Direct Bilirubin","μmol/L",0.0654221936673354,"0","5.1"
"01-013","Visit 2","2","2015-11-04","113","Serum","eGFR","μmol/L",21.1003361527936,"61.9","115"
"01-013","Visit 2","2","2015-11-04","113","Serum","eGFRcys","μmol/L",74.8070014769895,"61.9","115"
"01-013","Visit 2","2","2015-11-04","113","Serum","IgE","mg/L",0,"0.1","0.4"
"01-013","Visit 2","2","2015-11-04","113","Serum","Magnesium","mmol/L",,"0.62","0.99"
"01-013","Visit 2","2","2015-11-04","113","Serum","Phosphorus","mmol/L",1.0738353844462,"0.97","1.45"
"01-013","Visit 2","2","2015-11-04","113","Blood","Platelet count","x 109/L",249.185816122143,"150","350"
"01-013","Visit 2","2","2015-11-04","113","Serum","Potassium","mmol/L",,"3.5","5"
"01-013","Visit 2","2","2015-11-04","113","Blood","RBC count","x 1012 cells/L",5.58730142077514,"4.2","5.9"
"01-013","Visit 2","2","2015-11-04","113","Serum","Sodium","mmol/L",141.505970445987,"136","145"
"01-013","Visit 2","2","2015-11-04","113","Serum","Total Bilirubin","μmol/L",9.890356131895,"5.1","20.5"
"01-013","Visit 2","2","2015-11-04","113","Blood","WBC count","x 109 cells/L",10.1084865676233,"4.5","11"
"01-013","Visit 3","3","2016-01-04","174","Serum","Albumin","g/L",49.1477822032872,"35","55"
"01-013","Visit 3","3","2016-01-04","174","Urine","Albumin/Creatinine","mg/g",21.7662544964737,"0","30"
"01-013","Visit 3","3","2016-01-04","174","Serum","Alkaline phosphatase (ALP)","μkat/L",,"0.5","1.5"
"01-013","Visit 3","3","2016-01-04","174","Serum","Aminotransferase, alanine (ALT)","pkat/L",0.259957097306067,"0","0.58"
"01-013","Visit 3","3","2016-01-04","174","Serum","Aminotransferase, aspartate (AST)","pkat/L",0,"0","0.58"
"01-013","Visit 3","3","2016-01-04","174","Serum","Bicarbonate","mmol/L",23.3529823509225,"23","28"
"01-013","Visit 3","3","2016-01-04","174","Serum","Blood Urea Nitrogen","mmol/L",9.77832111254476,"2.9","7.1"
"01-013","Visit 3","3","2016-01-04","174","Serum","Calcium","mmol/L",2.19031307788755,"2.2","2.6"
"01-013","Visit 3","3","2016-01-04","174","Serum","Chloride","mmol/L",101.232409794376,"98","106"
"01-013","Visit 3","3","2016-01-04","174","Serum","Creatinine","μmol/L",75.6415576643967,"61.9","115"
"01-013","Visit 3","3","2016-01-04","174","Serum","Cystatin C","mg/L",0.908661411636686,"0.51","0.98"
"01-013","Visit 3","3","2016-01-04","174","Serum","Direct Bilirubin","μmol/L",1.95676951708493,"0","5.1"
"01-013","Visit 3","3","2016-01-04","174","Serum","eGFR","μmol/L",128.264599550918,"61.9","115"
"01-013","Visit 3","3","2016-01-04","174","Serum","eGFRcys","μmol/L",104.926316816877,"61.9","115"
"01-013","Visit 3","3","2016-01-04","174","Serum","IgE","mg/L",0.242184965149434,"0.1","0.4"
"01-013","Visit 3","3","2016-01-04","174","Serum","Magnesium","mmol/L",0.693149750412546,"0.62","0.99"
"01-013","Visit 3","3","2016-01-04","174","Serum","Phosphorus","mmol/L",1.28864159066192,"0.97","1.45"
"01-013","Visit 3","3","2016-01-04","174","Blood","Platelet count","x 109/L",,"150","350"
"01-013","Visit 3","3","2016-01-04","174","Serum","Potassium","mmol/L",4.19791892847221,"3.5","5"
"01-013","Visit 3","3","2016-01-04","174","Blood","RBC count","x 1012 cells/L",,"4.2","5.9"
"01-013","Visit 3","3","2016-01-04","174","Serum","Sodium","mmol/L",138.764497975025,"136","145"
"01-013","Visit 3","3","2016-01-04","174","Serum","Total Bilirubin","μmol/L",,"5.1","20.5"
"01-013","Visit 3","3","2016-01-04","174","Blood","WBC count","x 109 cells/L",,"4.5","11"
"01-013","Visit 4","4","2016-02-29","230","Serum","Albumin","g/L",,"35","55"
"01-013","Visit 4","4","2016-02-29","230","Urine","Albumin/Creatinine","mg/g",0,"0","30"
"01-013","Visit 4","4","2016-02-29","230","Serum","Alkaline phosphatase (ALP)","μkat/L",1.22545927327089,"0.5","1.5"
"01-013","Visit 4","4","2016-02-29","230","Serum","Aminotransferase, alanine (ALT)","pkat/L",0,"0","0.58"
"01-013","Visit 4","4","2016-02-29","230","Serum","Aminotransferase, aspartate (AST)","pkat/L",0.53588052069834,"0","0.58"
"01-013","Visit 4","4","2016-02-29","230","Serum","Bicarbonate","mmol/L",27.2318318677823,"23","28"
"01-013","Visit 4","4","2016-02-29","230","Serum","Blood Urea Nitrogen","mmol/L",4.12160519222899,"2.9","7.1"
"01-013","Visit 4","4","2016-02-29","230","Serum","Calcium","mmol/L",,"2.2","2.6"
"01-013","Visit 4","4","2016-02-29","230","Serum","Chloride","mmol/L",108.428554698829,"98","106"
"01-013","Visit 4","4","2016-02-29","230","Serum","Creatinine","μmol/L",79.1707349219634,"61.9","115"
"01-013","Visit 4","4","2016-02-29","230","Serum","Cystatin C","mg/L",0.462181126594754,"0.51","0.98"
"01-013","Visit 4","4","2016-02-29","230","Serum","Direct Bilirubin","μmol/L",1.52930912994126,"0","5.1"
"01-013","Visit 4","4","2016-02-29","230","Serum","eGFR","μmol/L",,"61.9","115"
"01-013","Visit 4","4","2016-02-29","230","Serum","eGFRcys","μmol/L",80.7586419992428,"61.9","115"
"01-013","Visit 4","4","2016-02-29","230","Serum","IgE","mg/L",0.239019964332975,"0.1","0.4"
"01-013","Visit 4","4","2016-02-29","230","Serum","Magnesium","mmol/L",0.654945496523103,"0.62","0.99"
"01-013","Visit 4","4","2016-02-29","230","Serum","Phosphorus","mmol/L",1.20470904210312,"0.97","1.45"
"01-013","Visit 4","4","2016-02-29","230","Blood","Platelet count","x 109/L",49.709874549288,"150","350"
"01-013","Visit 4","4","2016-02-29","230","Serum","Potassium","mmol/L",3.55152584186308,"3.5","5"
"01-013","Visit 4","4","2016-02-29","230","Blood","RBC count","x 1012 cells/L",4.4504265357093,"4.2","5.9"
"01-013","Visit 4","4","2016-02-29","230","Serum","Sodium","mmol/L",138.815278973779,"136","145"
"01-013","Visit 4","4","2016-02-29","230","Serum","Total Bilirubin","μmol/L",10.6190227944089,"5.1","20.5"
"01-013","Visit 4","4","2016-02-29","230","Blood","WBC count","x 109 cells/L",8.45448400506917,"4.5","11"
"01-013","Unscheduled 5.1","5.1","2016-05-02","293","Serum","Albumin","g/L",30.1902431807224,"35","55"
"01-013","Unscheduled 5.1","5.1","2016-05-02","293","Urine","Albumin/Creatinine","mg/g",27.8668521545457,"0","30"
"01-013","Unscheduled 5.1","5.1","2016-05-02","293","Serum","Alkaline phosphatase (ALP)","μkat/L",,"0.5","1.5"
"01-013","Unscheduled 5.1","5.1","2016-05-02","293","Serum","Aminotransferase, alanine (ALT)","pkat/L",0.523623184812765,"0","0.58"
"01-013","Unscheduled 5.1","5.1","2016-05-02","293","Serum","Aminotransferase, aspartate (AST)","pkat/L",0.512195398932899,"0","0.58"
"01-013","Unscheduled 5.1","5.1","2016-05-02","293","Serum","Bicarbonate","mmol/L",21.4547911427441,"23","28"
"01-013","Unscheduled 5.1","5.1","2016-05-02","293","Serum","Blood Urea Nitrogen","mmol/L",5.48274487340013,"2.9","7.1"
"01-013","Unscheduled 5.1","5.1","2016-05-02","293","Serum","Calcium","mmol/L",2.72870406646521,"2.2","2.6"
"01-013","Unscheduled 5.1","5.1","2016-05-02","293","Serum","Chloride","mmol/L",102.293721704999,"98","106"
"01-013","Unscheduled 5.1","5.1","2016-05-02","293","Serum","Creatinine","μmol/L",97.4735829084752,"61.9","115"
"01-013","Unscheduled 5.1","5.1","2016-05-02","293","Serum","Cystatin C","mg/L",0.782257942615543,"0.51","0.98"
"01-013","Unscheduled 5.1","5.1","2016-05-02","293","Serum","Direct Bilirubin","μmol/L",3.26156643362323,"0","5.1"
"01-013","Unscheduled 5.1","5.1","2016-05-02","293","Serum","eGFR","μmol/L",70.7727465840754,"61.9","115"
"01-013","Unscheduled 5.1","5.1","2016-05-02","293","Serum","eGFRcys","μmol/L",62.3971894226471,"61.9","115"
"01-013","Unscheduled 5.1","5.1","2016-05-02","293","Serum","IgE","mg/L",0.289202275720772,"0.1","0.4"
"01-013","Unscheduled 5.1","5.1","2016-05-02","293","Serum","Magnesium","mmol/L",1.0101881030053,"0.62","0.99"
"01-013","Unscheduled 5.1","5.1","2016-05-02","293","Serum","Phosphorus","mmol/L",1.38369516275741,"0.97","1.45"
"01-013","Unscheduled 5.1","5.1","2016-05-02","293","Blood","Platelet count","x 109/L",405.085687011016,"150","350"
"01-013","Unscheduled 5.1","5.1","2016-05-02","293","Serum","Potassium","mmol/L",3.09377235081586,"3.5","5"
"01-013","Unscheduled 5.1","5.1","2016-05-02","293","Blood","RBC count","x 1012 cells/L",4.31629781719333,"4.2","5.9"
"01-013","Unscheduled 5.1","5.1","2016-05-02","293","Serum","Sodium","mmol/L",135.614935899551,"136","145"
"01-013","Unscheduled 5.1","5.1","2016-05-02","293","Serum","Total Bilirubin","μmol/L",13.7620447079656,"5.1","20.5"
"01-013","Unscheduled 5.1","5.1","2016-05-02","293","Blood","WBC count","x 109 cells/L",5.42675254496146,"4.5","11"
"01-014","Screening","0","2015-07-24","1","Serum","Albumin","g/L",35.9997670239907,"35","55"
"01-014","Screening","0","2015-07-24","1","Urine","Albumin/Creatinine","mg/g",,"0","30"
"01-014","Screening","0","2015-07-24","1","Serum","Alkaline phosphatase (ALP)","μkat/L",1.44635623149637,"0.5","1.5"
"01-014","Screening","0","2015-07-24","1","Serum","Aminotransferase, alanine (ALT)","pkat/L",0.277026812904011,"0","0.58"
"01-014","Screening","0","2015-07-24","1","Serum","Aminotransferase, aspartate (AST)","pkat/L",0.582975304547101,"0","0.58"
"01-014","Screening","0","2015-07-24","1","Serum","Bicarbonate","mmol/L",25.563189066244,"23","28"
"01-014","Screening","0","2015-07-24","1","Serum","Blood Urea Nitrogen","mmol/L",,"2.9","7.1"
"01-014","Screening","0","2015-07-24","1","Serum","Calcium","mmol/L",2.25396868132788,"2.2","2.6"
"01-014","Screening","0","2015-07-24","1","Serum","Chloride","mmol/L",102.164113826068,"98","106"
"01-014","Screening","0","2015-07-24","1","Serum","Creatinine","μmol/L",79.8479946138581,"61.9","115"
"01-014","Screening","0","2015-07-24","1","Serum","Cystatin C","mg/L",1.03518169812191,"0.51","0.98"
"01-014","Screening","0","2015-07-24","1","Serum","Direct Bilirubin","μmol/L",4.24414948451598,"0","5.1"
"01-014","Screening","0","2015-07-24","1","Serum","eGFR","μmol/L",122.008584510918,"61.9","115"
"01-014","Screening","0","2015-07-24","1","Serum","eGFRcys","μmol/L",59.9739448705285,"61.9","115"
"01-014","Screening","0","2015-07-24","1","Serum","IgE","mg/L",0.324157649751567,"0.1","0.4"
"01-014","Screening","0","2015-07-24","1","Serum","Magnesium","mmol/L",0.869621194112933,"0.62","0.99"
"01-014","Screening","0","2015-07-24","1","Serum","Phosphorus","mmol/L",,"0.97","1.45"
"01-014","Screening","0","2015-07-24","1","Blood","Platelet count","x 109/L",86.3447838772933,"150","350"
"01-014","Screening","0","2015-07-24","1","Serum","Potassium","mmol/L",4.38586282135609,"3.5","5"
"01-014","Screening","0","2015-07-24","1","Blood","RBC count","x 1012 cells/L",5.68064418383524,"4.2","5.9"
"01-014","Screening","0","2015-07-24","1","Serum","Sodium","mmol/L",141.251496289629,"136","145"
"01-014","Screening","0","2015-07-24","1","Serum","Total Bilirubin","μmol/L",,"5.1","20.5"
"01-014","Screening","0","2015-07-24","1","Blood","WBC count","x 109 cells/L",,"4.5","11"
"01-014","Visit 1","1","2015-09-23","62","Serum","Albumin","g/L",37.1918909791438,"35","55"
"01-014","Visit 1","1","2015-09-23","62","Urine","Albumin/Creatinine","mg/g",8.22241482394915,"0","30"
"01-014","Visit 1","1","2015-09-23","62","Serum","Alkaline phosphatase (ALP)","μkat/L",0.875472046067591,"0.5","1.5"
"01-014","Visit 1","1","2015-09-23","62","Serum","Aminotransferase, alanine (ALT)","pkat/L",0.0896847627376254,"0","0.58"
"01-014","Visit 1","1","2015-09-23","62","Serum","Aminotransferase, aspartate (AST)","pkat/L",0.497979869110361,"0","0.58"
"01-014","Visit 1","1","2015-09-23","62","Serum","Bicarbonate","mmol/L",21.3745394184066,"23","28"
"01-014","Visit 1","1","2015-09-23","62","Serum","Blood Urea Nitrogen","mmol/L",3.77770879163705,"2.9","7.1"
"01-014","Visit 1","1","2015-09-23","62","Serum","Calcium","mmol/L",2.46450716142583,"2.2","2.6"
"01-014","Visit 1","1","2015-09-23","62","Serum","Chloride","mmol/L",99.5855785924321,"98","106"
"01-014","Visit 1","1","2015-09-23","62","Serum","Creatinine","μmol/L",79.9926317310374,"61.9","115"
"01-014","Visit 1","1","2015-09-23","62","Serum","Cystatin C","mg/L",1.13099373963975,"0.51","0.98"
"01-014","Visit 1","1","2015-09-23","62","Serum","Direct Bilirubin","μmol/L",2.19162578906632,"0","5.1"
"01-014","Visit 1","1","2015-09-23","62","Serum","eGFR","μmol/L",67.5469631308895,"61.9","115"
"01-014","Visit 1","1","2015-09-23","62","Serum","eGFRcys","μmol/L",89.8041144482073,"61.9","115"
"01-014","Visit 1","1","2015-09-23","62","Serum","IgE","mg/L",0.203540823498587,"0.1","0.4"
"01-014","Visit 1","1","2015-09-23","62","Serum","Magnesium","mmol/L",1.17944770567719,"0.62","0.99"
"01-014","Visit 1","1","2015-09-23","62","Serum","Phosphorus","mmol/L",1.18786251066995,"0.97","1.45"
"01-014","Visit 1","1","2015-09-23","62","Blood","Platelet count","x 109/L",395.639957980531,"150","350"
"01-014","Visit 1","1","2015-09-23","62","Serum","Potassium","mmol/L",2.58922025248389,"3.5","5"
"01-014","Visit 1","1","2015-09-23","62","Blood","RBC count","x 1012 cells/L",4.26321831811688,"4.2","5.9"
"01-014","Visit 1","1","2015-09-23","62","Serum","Sodium","mmol/L",136.305303679986,"136","145"
"01-014","Visit 1","1","2015-09-23","62","Serum","Total Bilirubin","μmol/L",19.4072706157277,"5.1","20.5"
"01-014","Visit 1","1","2015-09-23","62","Blood","WBC count","x 109 cells/L",3.47568420573296,"4.5","11"
"01-014","Visit 2","2","2015-11-05","105","Serum","Albumin","g/L",61.0974076374578,"35","55"
"01-014","Visit 2","2","2015-11-05","105","Urine","Albumin/Creatinine","mg/g",12.6112123449139,"0","30"
"01-014","Visit 2","2","2015-11-05","105","Serum","Alkaline phosphatase (ALP)","μkat/L",1.37250131761165,"0.5","1.5"
"01-014","Visit 2","2","2015-11-05","105","Serum","Aminotransferase, alanine (ALT)","pkat/L",0.164943993502411,"0","0.58"
"01-014","Visit 2","2","2015-11-05","105","Serum","Aminotransferase, aspartate (AST)","pkat/L",,"0","0.58"
"01-014","Visit 2","2","2015-11-05","105","Serum","Bicarbonate","mmol/L",29.2022493028047,"23","28"
"01-014","Visit 2","2","2015-11-05","105","Serum","Blood Urea Nitrogen","mmol/L",,"2.9","7.1"
"01-014","Visit 2","2","2015-11-05","105","Serum","Calcium","mmol/L",,"2.2","2.6"
"01-014","Visit 2","2","2015-11-05","105","Serum","Chloride","mmol/L",93.839047649252,"98","106"
"01-014","Visit 2","2","2015-11-05","105","Serum","Creatinine","μmol/L",111.502326076589,"61.9","115"
"01-014","Visit 2","2","2015-11-05","105","Serum","Cystatin C","mg/L",0.608332848807911,"0.51","0.98"
"01-014","Visit 2","2","2015-11-05","105","Serum","Direct Bilirubin","μmol/L",3.26836044602966,"0","5.1"
"01-014","Visit 2","2","2015-11-05","105","Serum","eGFR","μmol/L",74.948729335044,"61.9","115"
"01-014","Visit 2","2","2015-11-05","105","Serum","eGFRcys","μmol/L",143.323068810321,"61.9","115"
"01-014","Visit 2","2","2015-11-05","105","Serum","IgE","mg/L",0.199184296860425,"0.1","0.4"
"01-014","Visit 2","2","2015-11-05","105","Serum","Magnesium","mmol/L",,"0.62","0.99"
"01-014","Visit 2","2","2015-11-05","105","Serum","Phosphorus","mmol/L",1.32181245912978,"0.97","1.45"
"01-014","Visit 2","2","2015-11-05","105","Blood","Platelet count","x 109/L",256.306123903215,"150","350"
"01-014","Visit 2","2","2015-11-05","105","Serum","Potassium","mmol/L",,"3.5","5"
"01-014","Visit 2","2","2015-11-05","105","Blood","RBC count","x 1012 cells/L",4.87365598780302,"4.2","5.9"
"01-014","Visit 2","2","2015-11-05","105","Serum","Sodium","mmol/L",139.507047764324,"136","145"
"01-014","Visit 2","2","2015-11-05","105","Serum","Total Bilirubin","μmol/L",3.29164486364207,"5.1","20.5"
"01-014","Visit 2","2","2015-11-05","105","Blood","WBC count","x 109 cells/L",7.32948617496242,"4.5","11"
"01-014","Visit 3","3","2016-01-12","173","Serum","Albumin","g/L",40.6645958023317,"35","55"
"01-014","Visit 3","3","2016-01-12","173","Urine","Albumin/Creatinine","mg/g",0,"0","30"
"01-014","Visit 3","3","2016-01-12","173","Serum","Alkaline phosphatase (ALP)","μkat/L",,"0.5","1.5"
"01-014","Visit 3","3","2016-01-12","173","Serum","Aminotransferase, alanine (ALT)","pkat/L",0.0999873019270112,"0","0.58"
"01-014","Visit 3","3","2016-01-12","173","Serum","Aminotransferase, aspartate (AST)","pkat/L",0.43920095103914,"0","0.58"
"01-014","Visit 3","3","2016-01-12","173","Serum","Bicarbonate","mmol/L",20.9328960208419,"23","28"
"01-014","Visit 3","3","2016-01-12","173","Serum","Blood Urea Nitrogen","mmol/L",5.1372992663559,"2.9","7.1"
"01-014","Visit 3","3","2016-01-12","173","Serum","Calcium","mmol/L",2.26586745350727,"2.2","2.6"
"01-014","Visit 3","3","2016-01-12","173","Serum","Chloride","mmol/L",100.261699564946,"98","106"
"01-014","Visit 3","3","2016-01-12","173","Serum","Creatinine","μmol/L",54.1785003537651,"61.9","115"
"01-014","Visit 3","3","2016-01-12","173","Serum","Cystatin C","mg/L",0.778608541325266,"0.51","0.98"
"01-014","Visit 3","3","2016-01-12","173","Serum","Direct Bilirubin","μmol/L",5.17143566851672,"0","5.1"
"01-014","Visit 3","3","2016-01-12","173","Serum","eGFR","μmol/L",90.9114084913289,"61.9","115"
"01-014","Visit 3","3","2016-01-12","173","Serum","eGFRcys","μmol/L",88.2382592698118,"61.9","115"
"01-014","Visit 3","3","2016-01-12","173","Serum","IgE","mg/L",0.373020148165918,"0.1","0.4"
"01-014","Visit 3","3","2016-01-12","173","Serum","Magnesium","mmol/L",0.930889236168887,"0.62","0.99"
"01-014","Visit 3","3","2016-01-12","173","Serum","Phosphorus","mmol/L",1.0690274082955,"0.97","1.45"
"01-014","Visit 3","3","2016-01-12","173","Blood","Platelet count","x 109/L",155.635013132673,"150","350"
"01-014","Visit 3","3","2016-01-12","173","Serum","Potassium","mmol/L",4.03773101051428,"3.5","5"
"01-014","Visit 3","3","2016-01-12","173","Blood","RBC count","x 1012 cells/L",,"4.2","5.9"
"01-014","Visit 3","3","2016-01-12","173","Serum","Sodium","mmol/L",148.444506237761,"136","145"
"01-014","Visit 3","3","2016-01-12","173","Serum","Total Bilirubin","μmol/L",15.1173745066559,"5.1","20.5"
"01-014","Visit 3","3","2016-01-12","173","Blood","WBC count","x 109 cells/L",,"4.5","11"
"01-015","Screening","0","2015-04-28","1","Serum","Albumin","g/L",47.1527211767262,"35","55"
"01-015","Screening","0","2015-04-28","1","Urine","Albumin/Creatinine","mg/g",,"0","30"
"01-015","Screening","0","2015-04-28","1","Serum","Alkaline phosphatase (ALP)","μkat/L",1.86153206396314,"0.5","1.5"
"01-015","Screening","0","2015-04-28","1","Serum","Aminotransferase, alanine (ALT)","pkat/L",0.0254257801100879,"0","0.58"
"01-015","Screening","0","2015-04-28","1","Serum","Aminotransferase, aspartate (AST)","pkat/L",0.17523901590444,"0","0.58"
"01-015","Screening","0","2015-04-28","1","Serum","Bicarbonate","mmol/L",24.4260363273912,"23","28"
"01-015","Screening","0","2015-04-28","1","Serum","Blood Urea Nitrogen","mmol/L",,"2.9","7.1"
"01-015","Screening","0","2015-04-28","1","Serum","Calcium","mmol/L",2.38379587877024,"2.2","2.6"
"01-015","Screening","0","2015-04-28","1","Serum","Chloride","mmol/L",95.6072467418113,"98","106"
"01-015","Screening","0","2015-04-28","1","Serum","Creatinine","μmol/L",106.936673108823,"61.9","115"
"01-015","Screening","0","2015-04-28","1","Serum","Cystatin C","mg/L",0.170911676633667,"0.51","0.98"
"01-015","Screening","0","2015-04-28","1","Serum","Direct Bilirubin","μmol/L",2.41366126786416,"0","5.1"
"01-015","Screening","0","2015-04-28","1","Serum","eGFR","μmol/L",62.7577885724123,"61.9","115"
"01-015","Screening","0","2015-04-28","1","Serum","eGFRcys","μmol/L",44.1023617060234,"61.9","115"
"01-015","Screening","0","2015-04-28","1","Serum","IgE","mg/L",0.42778950653159,"0.1","0.4"
"01-015","Screening","0","2015-04-28","1","Serum","Magnesium","mmol/L",0.840554464169923,"0.62","0.99"
"01-015","Screening","0","2015-04-28","1","Serum","Phosphorus","mmol/L",,"0.97","1.45"
"01-015","Screening","0","2015-04-28","1","Blood","Platelet count","x 109/L",332.205358581515,"150","350"
"01-015","Screening","0","2015-04-28","1","Serum","Potassium","mmol/L",4.69351584695259,"3.5","5"
"01-015","Screening","0","2015-04-28","1","Blood","RBC count","x 1012 cells/L",5.46273995441178,"4.2","5.9"
"01-015","Screening","0","2015-04-28","1","Serum","Sodium","mmol/L",137.056044741662,"136","145"
"01-015","Screening","0","2015-04-28","1","Serum","Total Bilirubin","μmol/L",,"5.1","20.5"
"01-015","Screening","0","2015-04-28","1","Blood","WBC count","x 109 cells/L",,"4.5","11"
"01-015","Visit 1","1","2015-06-29","63","Serum","Albumin","g/L",22.1124923098554,"35","55"
"01-015","Visit 1","1","2015-06-29","63","Urine","Albumin/Creatinine","mg/g",6.79006781745152,"0","30"
"01-015","Visit 1","1","2015-06-29","63","Serum","Alkaline phosphatase (ALP)","μkat/L",1.91291646376874,"0.5","1.5"
"01-015","Visit 1","1","2015-06-29","63","Serum","Aminotransferase, alanine (ALT)","pkat/L",0.180086787930459,"0","0.58"
"01-015","Visit 1","1","2015-06-29","63","Serum","Aminotransferase, aspartate (AST)","pkat/L",0.0600771940531665,"0","0.58"
"01-015","Visit 1","1","2015-06-29","63","Serum","Bicarbonate","mmol/L",22.8882337186639,"23","28"
"01-015","Visit 1","1","2015-06-29","63","Serum","Blood Urea Nitrogen","mmol/L",4.98871846382173,"2.9","7.1"
"01-015","Visit 1","1","2015-06-29","63","Serum","Calcium","mmol/L",2.64943318581596,"2.2","2.6"
"01-015","Visit 1","1","2015-06-29","63","Serum","Chloride","mmol/L",97.8341450318394,"98","106"
"01-015","Visit 1","1","2015-06-29","63","Serum","Creatinine","μmol/L",116.697487386777,"61.9","115"
"01-015","Visit 1","1","2015-06-29","63","Serum","Cystatin C","mg/L",0.653444042043844,"0.51","0.98"
"01-015","Visit 1","1","2015-06-29","63","Serum","Direct Bilirubin","μmol/L",1.54240793435627,"0","5.1"
"01-015","Visit 1","1","2015-06-29","63","Serum","eGFR","μmol/L",76.6343292007368,"61.9","115"
"01-015","Visit 1","1","2015-06-29","63","Serum","eGFRcys","μmol/L",94.4441050751553,"61.9","115"
"01-015","Visit 1","1","2015-06-29","63","Serum","IgE","mg/L",0.09127463570879,"0.1","0.4"
"01-015","Visit 1","1","2015-06-29","63","Serum","Magnesium","mmol/L",1.16592851642932,"0.62","0.99"
"01-015","Visit 1","1","2015-06-29","63","Serum","Phosphorus","mmol/L",1.09116741096011,"0.97","1.45"
"01-015","Visit 1","1","2015-06-29","63","Blood","Platelet count","x 109/L",387.06582434616,"150","350"
"01-015","Visit 1","1","2015-06-29","63","Serum","Potassium","mmol/L",3.93133573739583,"3.5","5"
"01-015","Visit 1","1","2015-06-29","63","Blood","RBC count","x 1012 cells/L",3.44078919449373,"4.2","5.9"
"01-015","Visit 1","1","2015-06-29","63","Serum","Sodium","mmol/L",141.233867150969,"136","145"
"01-015","Visit 1","1","2015-06-29","63","Serum","Total Bilirubin","μmol/L",11.3272456780269,"5.1","20.5"
"01-015","Visit 1","1","2015-06-29","63","Blood","WBC count","x 109 cells/L",9.06862417819989,"4.5","11"
"01-015","Unscheduled 1.1","1.1","2015-07-07","71","Serum","Albumin","g/L",50.608172088259,"35","55"
"01-015","Unscheduled 1.1","1.1","2015-07-07","71","Urine","Albumin/Creatinine","mg/g",4.43921118851637,"0","30"
"01-015","Unscheduled 1.1","1.1","2015-07-07","71","Serum","Alkaline phosphatase (ALP)","μkat/L",1.38760361354058,"0.5","1.5"
"01-015","Unscheduled 1.1","1.1","2015-07-07","71","Serum","Aminotransferase, alanine (ALT)","pkat/L",0.258523729885506,"0","0.58"
"01-015","Unscheduled 1.1","1.1","2015-07-07","71","Serum","Aminotransferase, aspartate (AST)","pkat/L",0.233365544168224,"0","0.58"
"01-015","Unscheduled 1.1","1.1","2015-07-07","71","Serum","Bicarbonate","mmol/L",23.8826145067757,"23","28"
"01-015","Unscheduled 1.1","1.1","2015-07-07","71","Serum","Blood Urea Nitrogen","mmol/L",5.43511364451915,"2.9","7.1"
"01-015","Unscheduled 1.1","1.1","2015-07-07","71","Serum","Calcium","mmol/L",2.62472066709153,"2.2","2.6"
"01-015","Unscheduled 1.1","1.1","2015-07-07","71","Serum","Chloride","mmol/L",106.907263354289,"98","106"
"01-015","Unscheduled 1.1","1.1","2015-07-07","71","Serum","Creatinine","μmol/L",95.3033361417053,"61.9","115"
"01-015","Unscheduled 1.1","1.1","2015-07-07","71","Serum","Cystatin C","mg/L",0.853934461553506,"0.51","0.98"
"01-015","Unscheduled 1.1","1.1","2015-07-07","71","Serum","Direct Bilirubin","μmol/L",0,"0","5.1"
"01-015","Unscheduled 1.1","1.1","2015-07-07","71","Serum","eGFR","μmol/L",92.1405685693696,"61.9","115"
"01-015","Unscheduled 1.1","1.1","2015-07-07","71","Serum","eGFRcys","μmol/L",77.0718576187502,"61.9","115"
"01-015","Unscheduled 1.1","1.1","2015-07-07","71","Serum","IgE","mg/L",0.210443921536983,"0.1","0.4"
"01-015","Unscheduled 1.1","1.1","2015-07-07","71","Serum","Magnesium","mmol/L",0.777337969684128,"0.62","0.99"
"01-015","Unscheduled 1.1","1.1","2015-07-07","71","Serum","Phosphorus","mmol/L",1.79913856039991,"0.97","1.45"
"01-015","Unscheduled 1.1","1.1","2015-07-07","71","Blood","Platelet count","x 109/L",143.212012306211,"150","350"
"01-015","Unscheduled 1.1","1.1","2015-07-07","71","Serum","Potassium","mmol/L",3.56877253928841,"3.5","5"
"01-015","Unscheduled 1.1","1.1","2015-07-07","71","Blood","RBC count","x 1012 cells/L",5.38900279121465,"4.2","5.9"
"01-015","Unscheduled 1.1","1.1","2015-07-07","71","Serum","Sodium","mmol/L",140.357911848067,"136","145"
"01-015","Unscheduled 1.1","1.1","2015-07-07","71","Serum","Total Bilirubin","μmol/L",0,"5.1","20.5"
"01-015","Unscheduled 1.1","1.1","2015-07-07","71","Blood","WBC count","x 109 cells/L",10.9847634465035,"4.5","11"
"01-015","Visit 2","2","2015-08-24","119","Serum","Albumin","g/L",35.0351026730428,"35","55"
"01-015","Visit 2","2","2015-08-24","119","Urine","Albumin/Creatinine","mg/g",9.96029087153395,"0","30"
"01-015","Visit 2","2","2015-08-24","119","Serum","Alkaline phosphatase (ALP)","μkat/L",0.0334239642149213,"0.5","1.5"
"01-015","Visit 2","2","2015-08-24","119","Serum","Aminotransferase, alanine (ALT)","pkat/L",0.502048593537366,"0","0.58"
"01-015","Visit 2","2","2015-08-24","119","Serum","Aminotransferase, aspartate (AST)","pkat/L",,"0","0.58"
"01-015","Visit 2","2","2015-08-24","119","Serum","Bicarbonate","mmol/L",23.6798993071005,"23","28"
"01-015","Visit 2","2","2015-08-24","119","Serum","Blood Urea Nitrogen","mmol/L",,"2.9","7.1"
"01-015","Visit 2","2","2015-08-24","119","Serum","Calcium","mmol/L",,"2.2","2.6"
"01-015","Visit 2","2","2015-08-24","119","Serum","Chloride","mmol/L",105.98199509409,"98","106"
"01-015","Visit 2","2","2015-08-24","119","Serum","Creatinine","μmol/L",41.9374417093509,"61.9","115"
"01-015","Visit 2","2","2015-08-24","119","Serum","Cystatin C","mg/L",0.3326650665695,"0.51","0.98"
"01-015","Visit 2","2","2015-08-24","119","Serum","Direct Bilirubin","μmol/L",8.28320564624529,"0","5.1"
"01-015","Visit 2","2","2015-08-24","119","Serum","eGFR","μmol/L",99.0619327910723,"61.9","115"
"01-015","Visit 2","2","2015-08-24","119","Serum","eGFRcys","μmol/L",32.6938279775342,"61.9","115"
"01-015","Visit 2","2","2015-08-24","119","Serum","IgE","mg/L",0.361707040540471,"0.1","0.4"
"01-015","Visit 2","2","2015-08-24","119","Serum","Magnesium","mmol/L",,"0.62","0.99"
"01-015","Visit 2","2","2015-08-24","119","Serum","Phosphorus","mmol/L",1.30041643172575,"0.97","1.45"
"01-015","Visit 2","2","2015-08-24","119","Blood","Platelet count","x 109/L",237.619936458867,"150","350"
"01-015","Visit 2","2","2015-08-24","119","Serum","Potassium","mmol/L",,"3.5","5"
"01-015","Visit 2","2","2015-08-24","119","Blood","RBC count","x 1012 cells/L",6.340383580737,"4.2","5.9"
"01-015","Visit 2","2","2015-08-24","119","Serum","Sodium","mmol/L",143.602202276916,"136","145"
"01-015","Visit 2","2","2015-08-24","119","Serum","Total Bilirubin","μmol/L",11.6332217136583,"5.1","20.5"
"01-015","Visit 2","2","2015-08-24","119","Blood","WBC count","x 109 cells/L",10.0274059195751,"4.5","11"
"01-016","Screening","0","2015-12-21","1","Serum","Albumin","g/L",50.2331682991048,"35","55"
"01-016","Screening","0","2015-12-21","1","Urine","Albumin/Creatinine","mg/g",,"0","30"
"01-016","Screening","0","2015-12-21","1","Serum","Alkaline phosphatase (ALP)","μkat/L",0.279245502859907,"0.5","1.5"
"01-016","Screening","0","2015-12-21","1","Serum","Aminotransferase, alanine (ALT)","pkat/L",0.433199744443766,"0","0.58"
"01-016","Screening","0","2015-12-21","1","Serum","Aminotransferase, aspartate (AST)","pkat/L",0,"0","0.58"
"01-016","Screening","0","2015-12-21","1","Serum","Bicarbonate","mmol/L",23.1861868215493,"23","28"
"01-016","Screening","0","2015-12-21","1","Serum","Blood Urea Nitrogen","mmol/L",,"2.9","7.1"
"01-016","Screening","0","2015-12-21","1","Serum","Calcium","mmol/L",2.13816238616764,"2.2","2.6"
"01-016","Screening","0","2015-12-21","1","Serum","Chloride","mmol/L",102.511174514295,"98","106"
"01-016","Screening","0","2015-12-21","1","Serum","Creatinine","μmol/L",65.4129157692528,"61.9","115"
"01-016","Screening","0","2015-12-21","1","Serum","Cystatin C","mg/L",0.689547653515399,"0.51","0.98"
"01-016","Screening","0","2015-12-21","1","Serum","Direct Bilirubin","μmol/L",8.47899325064381,"0","5.1"
"01-016","Screening","0","2015-12-21","1","Serum","eGFR","μmol/L",103.365388770412,"61.9","115"
"01-016","Screening","0","2015-12-21","1","Serum","eGFRcys","μmol/L",91.1856831385958,"61.9","115"
"01-016","Screening","0","2015-12-21","1","Serum","IgE","mg/L",0.401797998574605,"0.1","0.4"
"01-016","Screening","0","2015-12-21","1","Serum","Magnesium","mmol/L",0.910874705433871,"0.62","0.99"
"01-016","Screening","0","2015-12-21","1","Serum","Phosphorus","mmol/L",,"0.97","1.45"
"01-016","Screening","0","2015-12-21","1","Blood","Platelet count","x 109/L",119.511689038029,"150","350"
"01-016","Screening","0","2015-12-21","1","Serum","Potassium","mmol/L",4.65601247503664,"3.5","5"
"01-016","Screening","0","2015-12-21","1","Blood","RBC count","x 1012 cells/L",3.09315784967104,"4.2","5.9"
"01-016","Screening","0","2015-12-21","1","Serum","Sodium","mmol/L",126.898129180481,"136","145"
"01-016","Screening","0","2015-12-21","1","Serum","Total Bilirubin","μmol/L",,"5.1","20.5"
"01-016","Screening","0","2015-12-21","1","Blood","WBC count","x 109 cells/L",,"4.5","11"
"01-016","Visit 1","1","2016-02-19","61","Serum","Albumin","g/L",42.9127175075729,"35","55"
"01-016","Visit 1","1","2016-02-19","61","Urine","Albumin/Creatinine","mg/g",39.7727824045153,"0","30"
"01-016","Visit 1","1","2016-02-19","61","Serum","Alkaline phosphatase (ALP)","μkat/L",1.78807578979836,"0.5","1.5"
"01-016","Visit 1","1","2016-02-19","61","Serum","Aminotransferase, alanine (ALT)","pkat/L",0.151519733502232,"0","0.58"
"01-016","Visit 1","1","2016-02-19","61","Serum","Aminotransferase, aspartate (AST)","pkat/L",0.516793503740549,"0","0.58"
"01-016","Visit 1","1","2016-02-19","61","Serum","Bicarbonate","mmol/L",28.115449550088,"23","28"
"01-016","Visit 1","1","2016-02-19","61","Serum","Blood Urea Nitrogen","mmol/L",5.03713217186294,"2.9","7.1"
"01-016","Visit 1","1","2016-02-19","61","Serum","Calcium","mmol/L",2.38891352143063,"2.2","2.6"
"01-016","Visit 1","1","2016-02-19","61","Serum","Chloride","mmol/L",101.309899381434,"98","106"
"01-016","Visit 1","1","2016-02-19","61","Serum","Creatinine","μmol/L",,"61.9","115"
"01-016","Visit 1","1","2016-02-19","61","Serum","Cystatin C","mg/L",0.726604673071728,"0.51","0.98"
"01-016","Visit 1","1","2016-02-19","61","Serum","Direct Bilirubin","μmol/L",4.65703063050371,"0","5.1"
"01-016","Visit 1","1","2016-02-19","61","Serum","eGFR","μmol/L",102.563069740676,"61.9","115"
"01-016","Visit 1","1","2016-02-19","61","Serum","eGFRcys","μmol/L",103.315818337195,"61.9","115"
"01-016","Visit 1","1","2016-02-19","61","Serum","IgE","mg/L",0.452099441688926,"0.1","0.4"
"01-016","Visit 1","1","2016-02-19","61","Serum","Magnesium","mmol/L",0.618880800796275,"0.62","0.99"
"01-016","Visit 1","1","2016-02-19","61","Serum","Phosphorus","mmol/L",0.988239747764958,"0.97","1.45"
"01-016","Visit 1","1","2016-02-19","61","Blood","Platelet count","x 109/L",432.637544325126,"150","350"
"01-016","Visit 1","1","2016-02-19","61","Serum","Potassium","mmol/L",3.76577925049326,"3.5","5"
"01-016","Visit 1","1","2016-02-19","61","Blood","RBC count","x 1012 cells/L",5.45623911848071,"4.2","5.9"
"01-016","Visit 1","1","2016-02-19","61","Serum","Sodium","mmol/L",138.425474071409,"136","145"
"01-016","Visit 1","1","2016-02-19","61","Serum","Total Bilirubin","μmol/L",16.4473006257703,"5.1","20.5"
"01-016","Visit 1","1","2016-02-19","61","Blood","WBC count","x 109 cells/L",9.79527650498449,"4.5","11"
"01-016","Visit 2","2","2016-04-03","105","Serum","Albumin","g/L",47.9547997429728,"35","55"
"01-016","Visit 2","2","2016-04-03","105","Urine","Albumin/Creatinine","mg/g",12.521979520649,"0","30"
"01-016","Visit 2","2","2016-04-03","105","Serum","Alkaline phosphatase (ALP)","μkat/L",1.99689452430329,"0.5","1.5"
"01-016","Visit 2","2","2016-04-03","105","Serum","Aminotransferase, alanine (ALT)","pkat/L",0,"0","0.58"
"01-016","Visit 2","2","2016-04-03","105","Serum","Aminotransferase, aspartate (AST)","pkat/L",,"0","0.58"
"01-016","Visit 2","2","2016-04-03","105","Serum","Bicarbonate","mmol/L",24.5284692088981,"23","28"
"01-016","Visit 2","2","2016-04-03","105","Serum","Blood Urea Nitrogen","mmol/L",,"2.9","7.1"
"01-016","Visit 2","2","2016-04-03","105","Serum","Calcium","mmol/L",,"2.2","2.6"
"01-016","Visit 2","2","2016-04-03","105","Serum","Chloride","mmol/L",99.6158881128489,"98","106"
"01-016","Visit 2","2","2016-04-03","105","Serum","Creatinine","μmol/L",105.32071735746,"61.9","115"
"01-016","Visit 2","2","2016-04-03","105","Serum","Cystatin C","mg/L",0.456135708477159,"0.51","0.98"
"01-016","Visit 2","2","2016-04-03","105","Serum","Direct Bilirubin","μmol/L",9.40265732802854,"0","5.1"
"01-016","Visit 2","2","2016-04-03","105","Serum","eGFR","μmol/L",82.4820748676057,"61.9","115"
"01-016","Visit 2","2","2016-04-03","105","Serum","eGFRcys","μmol/L",85.517439922409,"61.9","115"
"01-016","Visit 2","2","2016-04-03","105","Serum","IgE","mg/L",0.0901682771331128,"0.1","0.4"
"01-016","Visit 2","2","2016-04-03","105","Serum","Magnesium","mmol/L",,"0.62","0.99"
"01-016","Visit 2","2","2016-04-03","105","Serum","Phosphorus","mmol/L",1.17420895512964,"0.97","1.45"
"01-016","Visit 2","2","2016-04-03","105","Blood","Platelet count","x 109/L",298.676580821806,"150","350"
"01-016","Visit 2","2","2016-04-03","105","Serum","Potassium","mmol/L",,"3.5","5"
"01-016","Visit 2","2","2016-04-03","105","Blood","RBC count","x 1012 cells/L",4.35998495361823,"4.2","5.9"
"01-016","Visit 2","2","2016-04-03","105","Serum","Sodium","mmol/L",138.621175179637,"136","145"
"01-016","Visit 2","2","2016-04-03","105","Serum","Total Bilirubin","μmol/L",5.60944504669892,"5.1","20.5"
"01-016","Visit 2","2","2016-04-03","105","Blood","WBC count","x 109 cells/L",9.39669144757896,"4.5","11"
"01-016","Visit 3","3","2016-06-09","172","Serum","Albumin","g/L",53.3645437470767,"35","55"
"01-016","Visit 3","3","2016-06-09","172","Urine","Albumin/Creatinine","mg/g",16.5152040160206,"0","30"
"01-016","Visit 3","3","2016-06-09","172","Serum","Alkaline phosphatase (ALP)","μkat/L",,"0.5","1.5"
"01-016","Visit 3","3","2016-06-09","172","Serum","Aminotransferase, alanine (ALT)","pkat/L",0.382405516634045,"0","0.58"
"01-016","Visit 3","3","2016-06-09","172","Serum","Aminotransferase, aspartate (AST)","pkat/L",0.166306167350484,"0","0.58"
"01-016","Visit 3","3","2016-06-09","172","Serum","Bicarbonate","mmol/L",24.7613734159196,"23","28"
"01-016","Visit 3","3","2016-06-09","172","Serum","Blood Urea Nitrogen","mmol/L",6.04780419441682,"2.9","7.1"
"01-016","Visit 3","3","2016-06-09","172","Serum","Calcium","mmol/L",2.45134307497111,"2.2","2.6"
"01-016","Visit 3","3","2016-06-09","172","Serum","Chloride","mmol/L",103.814413785967,"98","106"
"01-016","Visit 3","3","2016-06-09","172","Serum","Creatinine","μmol/L",73.3132444244636,"61.9","115"
"01-016","Visit 3","3","2016-06-09","172","Serum","Cystatin C","mg/L",1.14721623967018,"0.51","0.98"
"01-016","Visit 3","3","2016-06-09","172","Serum","Direct Bilirubin","μmol/L",3.33949069631933,"0","5.1"
"01-016","Visit 3","3","2016-06-09","172","Serum","eGFR","μmol/L",155.8020779689,"61.9","115"
"01-016","Visit 3","3","2016-06-09","172","Serum","eGFRcys","μmol/L",113.94864966113,"61.9","115"
"01-016","Visit 3","3","2016-06-09","172","Serum","IgE","mg/L",0.160616814998276,"0.1","0.4"
"01-016","Visit 3","3","2016-06-09","172","Serum","Magnesium","mmol/L",0.744293073857574,"0.62","0.99"
"01-016","Visit 3","3","2016-06-09","172","Serum","Phosphorus","mmol/L",1.31860792897778,"0.97","1.45"
"01-016","Visit 3","3","2016-06-09","172","Blood","Platelet count","x 109/L",193.706714490918,"150","350"
"01-016","Visit 3","3","2016-06-09","172","Serum","Potassium","mmol/L",4.47930610908673,"3.5","5"
"01-016","Visit 3","3","2016-06-09","172","Blood","RBC count","x 1012 cells/L",,"4.2","5.9"
"01-016","Visit 3","3","2016-06-09","172","Serum","Sodium","mmol/L",143.31217801464,"136","145"
"01-016","Visit 3","3","2016-06-09","172","Serum","Total Bilirubin","μmol/L",4.53984445518171,"5.1","20.5"
"01-016","Visit 3","3","2016-06-09","172","Blood","WBC count","x 109 cells/L",,"4.5","11"
"01-016","Visit 4","4","2016-08-04","228","Serum","Albumin","g/L",,"35","55"
"01-016","Visit 4","4","2016-08-04","228","Urine","Albumin/Creatinine","mg/g",0,"0","30"
"01-016","Visit 4","4","2016-08-04","228","Serum","Alkaline phosphatase (ALP)","μkat/L",0.891477840674591,"0.5","1.5"
"01-016","Visit 4","4","2016-08-04","228","Serum","Aminotransferase, alanine (ALT)","pkat/L",0.222375101249024,"0","0.58"
"01-016","Visit 4","4","2016-08-04","228","Serum","Aminotransferase, aspartate (AST)","pkat/L",0,"0","0.58"
"01-016","Visit 4","4","2016-08-04","228","Serum","Bicarbonate","mmol/L",30.4393081828485,"23","28"
"01-016","Visit 4","4","2016-08-04","228","Serum","Blood Urea Nitrogen","mmol/L",5.65837965768718,"2.9","7.1"
"01-016","Visit 4","4","2016-08-04","228","Serum","Calcium","mmol/L",,"2.2","2.6"
"01-016","Visit 4","4","2016-08-04","228","Serum","Chloride","mmol/L",103.515635361464,"98","106"
"01-016","Visit 4","4","2016-08-04","228","Serum","Creatinine","μmol/L",103.42675832202,"61.9","115"
"01-016","Visit 4","4","2016-08-04","228","Serum","Cystatin C","mg/L",0.658647453298763,"0.51","0.98"
"01-016","Visit 4","4","2016-08-04","228","Serum","Direct Bilirubin","μmol/L",2.87485171451885,"0","5.1"
"01-016","Visit 4","4","2016-08-04","228","Serum","eGFR","μmol/L",,"61.9","115"
"01-016","Visit 4","4","2016-08-04","228","Serum","eGFRcys","μmol/L",121.174661123652,"61.9","115"
"01-016","Visit 4","4","2016-08-04","228","Serum","IgE","mg/L",0.331927762722453,"0.1","0.4"
"01-016","Visit 4","4","2016-08-04","228","Serum","Magnesium","mmol/L",0.709113991296825,"0.62","0.99"
"01-016","Visit 4","4","2016-08-04","228","Serum","Phosphorus","mmol/L",1.46634852168774,"0.97","1.45"
"01-016","Visit 4","4","2016-08-04","228","Blood","Platelet count","x 109/L",285.111630209843,"150","350"
"01-016","Visit 4","4","2016-08-04","228","Serum","Potassium","mmol/L",4.90185763680279,"3.5","5"
"01-016","Visit 4","4","2016-08-04","228","Blood","RBC count","x 1012 cells/L",4.33936685273859,"4.2","5.9"
"01-016","Visit 4","4","2016-08-04","228","Serum","Sodium","mmol/L",144.343649962552,"136","145"
"01-016","Visit 4","4","2016-08-04","228","Serum","Total Bilirubin","μmol/L",5.04371314054712,"5.1","20.5"
"01-016","Visit 4","4","2016-08-04","228","Blood","WBC count","x 109 cells/L",8.38341265061986,"4.5","11"
"01-017","Screening","0","2015-02-12","1","Serum","Albumin","g/L",54.0238057717843,"35","55"
"01-017","Screening","0","2015-02-12","1","Urine","Albumin/Creatinine","mg/g",,"0","30"
"01-017","Screening","0","2015-02-12","1","Serum","Alkaline phosphatase (ALP)","μkat/L",0.872077841313364,"0.5","1.5"
"01-017","Screening","0","2015-02-12","1","Serum","Aminotransferase, alanine (ALT)","pkat/L",0.34238107710769,"0","0.58"
"01-017","Screening","0","2015-02-12","1","Serum","Aminotransferase, aspartate (AST)","pkat/L",0.107478569604617,"0","0.58"
"01-017","Screening","0","2015-02-12","1","Serum","Bicarbonate","mmol/L",30.5792243039503,"23","28"
"01-017","Screening","0","2015-02-12","1","Serum","Blood Urea Nitrogen","mmol/L",,"2.9","7.1"
"01-017","Screening","0","2015-02-12","1","Serum","Calcium","mmol/L",2.70577983612175,"2.2","2.6"
"01-017","Screening","0","2015-02-12","1","Serum","Chloride","mmol/L",112.494389586927,"98","106"
"01-017","Screening","0","2015-02-12","1","Serum","Creatinine","μmol/L",100.756653767604,"61.9","115"
"01-017","Screening","0","2015-02-12","1","Serum","Cystatin C","mg/L",0.882799374757389,"0.51","0.98"
"01-017","Screening","0","2015-02-12","1","Serum","Direct Bilirubin","μmol/L",3.63385209247625,"0","5.1"
"01-017","Screening","0","2015-02-12","1","Serum","eGFR","μmol/L",99.8870914962769,"61.9","115"
"01-017","Screening","0","2015-02-12","1","Serum","eGFRcys","μmol/L",,"61.9","115"
"01-017","Screening","0","2015-02-12","1","Serum","IgE","mg/L",0.150003147067264,"0.1","0.4"
"01-017","Screening","0","2015-02-12","1","Serum","Magnesium","mmol/L",0.90926349228523,"0.62","0.99"
"01-017","Screening","0","2015-02-12","1","Serum","Phosphorus","mmol/L",,"0.97","1.45"
"01-017","Screening","0","2015-02-12","1","Blood","Platelet count","x 109/L",293.564406689882,"150","350"
"01-017","Screening","0","2015-02-12","1","Serum","Potassium","mmol/L",5.94762798407874,"3.5","5"
"01-017","Screening","0","2015-02-12","1","Blood","RBC count","x 1012 cells/L",5.48159494000893,"4.2","5.9"
"01-017","Screening","0","2015-02-12","1","Serum","Sodium","mmol/L",130.804676549237,"136","145"
"01-017","Screening","0","2015-02-12","1","Serum","Total Bilirubin","μmol/L",,"5.1","20.5"
"01-017","Screening","0","2015-02-12","1","Blood","WBC count","x 109 cells/L",,"4.5","11"
"01-017","Visit 1","1","2015-04-11","59","Serum","Albumin","g/L",27.7274647279353,"35","55"
"01-017","Visit 1","1","2015-04-11","59","Urine","Albumin/Creatinine","mg/g",33.8436524042342,"0","30"
"01-017","Visit 1","1","2015-04-11","59","Serum","Alkaline phosphatase (ALP)","μkat/L",1.57362786204418,"0.5","1.5"
"01-017","Visit 1","1","2015-04-11","59","Serum","Aminotransferase, alanine (ALT)","pkat/L",0.157588239715112,"0","0.58"
"01-017","Visit 1","1","2015-04-11","59","Serum","Aminotransferase, aspartate (AST)","pkat/L",0.468609053104293,"0","0.58"
"01-017","Visit 1","1","2015-04-11","59","Serum","Bicarbonate","mmol/L",23.4510569615718,"23","28"
"01-017","Visit 1","1","2015-04-11","59","Serum","Blood Urea Nitrogen","mmol/L",3.57449055695589,"2.9","7.1"
"01-017","Visit 1","1","2015-04-11","59","Serum","Calcium","mmol/L",2.48407024818867,"2.2","2.6"
"01-017","Visit 1","1","2015-04-11","59","Serum","Chloride","mmol/L",99.9807898447099,"98","106"
"01-017","Visit 1","1","2015-04-11","59","Serum","Creatinine","μmol/L",77.3127719127709,"61.9","115"
"01-017","Visit 1","1","2015-04-11","59","Serum","Cystatin C","mg/L",0.901076434173032,"0.51","0.98"
"01-017","Visit 1","1","2015-04-11","59","Serum","Direct Bilirubin","μmol/L",5.80888149780152,"0","5.1"
"01-017","Visit 1","1","2015-04-11","59","Serum","eGFR","μmol/L",55.3746675758161,"61.9","115"
"01-017","Visit 1","1","2015-04-11","59","Serum","eGFRcys","μmol/L",100.671314767871,"61.9","115"
"01-017","Visit 1","1","2015-04-11","59","Serum","IgE","mg/L",0.19324146466874,"0.1","0.4"
"01-017","Visit 1","1","2015-04-11","59","Serum","Magnesium","mmol/L",0.984161251634035,"0.62","0.99"
"01-017","Visit 1","1","2015-04-11","59","Serum","Phosphorus","mmol/L",1.07461874226725,"0.97","1.45"
"01-017","Visit 1","1","2015-04-11","59","Blood","Platelet count","x 109/L",91.0737024555172,"150","350"
"01-017","Visit 1","1","2015-04-11","59","Serum","Potassium","mmol/L",3.72242051203668,"3.5","5"
"01-017","Visit 1","1","2015-04-11","59","Blood","RBC count","x 1012 cells/L",5.15406259213205,"4.2","5.9"
"01-017","Visit 1","1","2015-04-11","59","Serum","Sodium","mmol/L",137.208848873246,"136","145"
"01-017","Visit 1","1","2015-04-11","59","Serum","Total Bilirubin","μmol/L",21.3783795488806,"5.1","20.5"
"01-017","Visit 1","1","2015-04-11","59","Blood","WBC count","x 109 cells/L",3.46033434191323,"4.5","11"
"01-017","Visit 2","2","2015-05-31","109","Serum","Albumin","g/L",46.9591930019408,"35","55"
"01-017","Visit 2","2","2015-05-31","109","Urine","Albumin/Creatinine","mg/g",0,"0","30"
"01-017","Visit 2","2","2015-05-31","109","Serum","Alkaline phosphatase (ALP)","μkat/L",1.15227340843285,"0.5","1.5"
"01-017","Visit 2","2","2015-05-31","109","Serum","Aminotransferase, alanine (ALT)","pkat/L",0.367119725407376,"0","0.58"
"01-017","Visit 2","2","2015-05-31","109","Serum","Aminotransferase, aspartate (AST)","pkat/L",,"0","0.58"
"01-017","Visit 2","2","2015-05-31","109","Serum","Bicarbonate","mmol/L",23.9485430069282,"23","28"
"01-017","Visit 2","2","2015-05-31","109","Serum","Blood Urea Nitrogen","mmol/L",,"2.9","7.1"
"01-017","Visit 2","2","2015-05-31","109","Serum","Calcium","mmol/L",,"2.2","2.6"
"01-017","Visit 2","2","2015-05-31","109","Serum","Chloride","mmol/L",109.487797757776,"98","106"
"01-017","Visit 2","2","2015-05-31","109","Serum","Creatinine","μmol/L",,"61.9","115"
"01-017","Visit 2","2","2015-05-31","109","Serum","Cystatin C","mg/L",0.838754024919122,"0.51","0.98"
"01-017","Visit 2","2","2015-05-31","109","Serum","Direct Bilirubin","μmol/L",4.55598706680188,"0","5.1"
"01-017","Visit 2","2","2015-05-31","109","Serum","eGFR","μmol/L",97.8628962546748,"61.9","115"
"01-017","Visit 2","2","2015-05-31","109","Serum","eGFRcys","μmol/L",78.8944846798069,"61.9","115"
"01-017","Visit 2","2","2015-05-31","109","Serum","IgE","mg/L",0.174402132053125,"0.1","0.4"
"01-017","Visit 2","2","2015-05-31","109","Serum","Magnesium","mmol/L",,"0.62","0.99"
"01-017","Visit 2","2","2015-05-31","109","Serum","Phosphorus","mmol/L",1.10597991063172,"0.97","1.45"
"01-017","Visit 2","2","2015-05-31","109","Blood","Platelet count","x 109/L",214.451674117186,"150","350"
"01-017","Visit 2","2","2015-05-31","109","Serum","Potassium","mmol/L",,"3.5","5"
"01-017","Visit 2","2","2015-05-31","109","Blood","RBC count","x 1012 cells/L",4.15862029821201,"4.2","5.9"
"01-017","Visit 2","2","2015-05-31","109","Serum","Sodium","mmol/L",153.481478308857,"136","145"
"01-017","Visit 2","2","2015-05-31","109","Serum","Total Bilirubin","μmol/L",15.4273157825644,"5.1","20.5"
"01-017","Visit 2","2","2015-05-31","109","Blood","WBC count","x 109 cells/L",1.05052874432863,"4.5","11"
"01-017","Visit 3","3","2015-08-02","172","Serum","Albumin","g/L",54.6118508467012,"35","55"
"01-017","Visit 3","3","2015-08-02","172","Urine","Albumin/Creatinine","mg/g",10.2951513870874,"0","30"
"01-017","Visit 3","3","2015-08-02","172","Serum","Alkaline phosphatase (ALP)","μkat/L",,"0.5","1.5"
"01-017","Visit 3","3","2015-08-02","172","Serum","Aminotransferase, alanine (ALT)","pkat/L",0,"0","0.58"
"01-017","Visit 3","3","2015-08-02","172","Serum","Aminotransferase, aspartate (AST)","pkat/L",0.492054031989839,"0","0.58"
"01-017","Visit 3","3","2015-08-02","172","Serum","Bicarbonate","mmol/L",25.199109791806,"23","28"
"01-017","Visit 3","3","2015-08-02","172","Serum","Blood Urea Nitrogen","mmol/L",4.79860563210766,"2.9","7.1"
"01-017","Visit 3","3","2015-08-02","172","Serum","Calcium","mmol/L",2.51767469926868,"2.2","2.6"
"01-017","Visit 3","3","2015-08-02","172","Serum","Chloride","mmol/L",100.12447990449,"98","106"
"01-017","Visit 3","3","2015-08-02","172","Serum","Creatinine","μmol/L",82.2781073818873,"61.9","115"
"01-017","Visit 3","3","2015-08-02","172","Serum","Cystatin C","mg/L",0.553364887526853,"0.51","0.98"
"01-017","Visit 3","3","2015-08-02","172","Serum","Direct Bilirubin","μmol/L",0.410059966561529,"0","5.1"
"01-017","Visit 3","3","2015-08-02","172","Serum","eGFR","μmol/L",63.209473882266,"61.9","115"
"01-017","Visit 3","3","2015-08-02","172","Serum","eGFRcys","μmol/L",34.1363060674291,"61.9","115"
"01-017","Visit 3","3","2015-08-02","172","Serum","IgE","mg/L",,"0.1","0.4"
"01-017","Visit 3","3","2015-08-02","172","Serum","Magnesium","mmol/L",0.767303717503092,"0.62","0.99"
"01-017","Visit 3","3","2015-08-02","172","Serum","Phosphorus","mmol/L",1.05965752674908,"0.97","1.45"
"01-017","Visit 3","3","2015-08-02","172","Blood","Platelet count","x 109/L",160.853432682371,"150","350"
"01-017","Visit 3","3","2015-08-02","172","Serum","Potassium","mmol/L",4.3763449551865,"3.5","5"
"01-017","Visit 3","3","2015-08-02","172","Blood","RBC count","x 1012 cells/L",,"4.2","5.9"
"01-017","Visit 3","3","2015-08-02","172","Serum","Sodium","mmol/L",143.963468216723,"136","145"
"01-017","Visit 3","3","2015-08-02","172","Serum","Total Bilirubin","μmol/L",5.8878394638945,"5.1","20.5"
"01-017","Visit 3","3","2015-08-02","172","Blood","WBC count","x 109 cells/L",,"4.5","11"
"01-018","Screening","0","2015-02-13","1","Serum","Albumin","g/L",29.8222778701197,"35","55"
"01-018","Screening","0","2015-02-13","1","Urine","Albumin/Creatinine","mg/g",,"0","30"
"01-018","Screening","0","2015-02-13","1","Serum","Alkaline phosphatase (ALP)","μkat/L",0,"0.5","1.5"
"01-018","Screening","0","2015-02-13","1","Serum","Aminotransferase, alanine (ALT)","pkat/L",0.432873114505272,"0","0.58"
"01-018","Screening","0","2015-02-13","1","Serum","Aminotransferase, aspartate (AST)","pkat/L",0.215789549137818,"0","0.58"
"01-018","Screening","0","2015-02-13","1","Serum","Bicarbonate","mmol/L",26.5181237614071,"23","28"
"01-018","Screening","0","2015-02-13","1","Serum","Blood Urea Nitrogen","mmol/L",,"2.9","7.1"
"01-018","Screening","0","2015-02-13","1","Serum","Calcium","mmol/L",2.124068778939,"2.2","2.6"
"01-018","Screening","0","2015-02-13","1","Serum","Chloride","mmol/L",99.083545873271,"98","106"
"01-018","Screening","0","2015-02-13","1","Serum","Creatinine","μmol/L",93.3978824517114,"61.9","115"
"01-018","Screening","0","2015-02-13","1","Serum","Cystatin C","mg/L",0.388750448090069,"0.51","0.98"
"01-018","Screening","0","2015-02-13","1","Serum","Direct Bilirubin","μmol/L",0.67449209866424,"0","5.1"
"01-018","Screening","0","2015-02-13","1","Serum","eGFR","μmol/L",46.714312341048,"61.9","115"
"01-018","Screening","0","2015-02-13","1","Serum","eGFRcys","μmol/L",117.513812771358,"61.9","115"
"01-018","Screening","0","2015-02-13","1","Serum","IgE","mg/L",0.392197249438609,"0.1","0.4"
"01-018","Screening","0","2015-02-13","1","Serum","Magnesium","mmol/L",0.847844183555516,"0.62","0.99"
"01-018","Screening","0","2015-02-13","1","Serum","Phosphorus","mmol/L",,"0.97","1.45"
"01-018","Screening","0","2015-02-13","1","Blood","Platelet count","x 109/L",156.371084572947,"150","350"
"01-018","Screening","0","2015-02-13","1","Serum","Potassium","mmol/L",4.36060950965823,"3.5","5"
"01-018","Screening","0","2015-02-13","1","Blood","RBC count","x 1012 cells/L",5.72006577938562,"4.2","5.9"
"01-018","Screening","0","2015-02-13","1","Serum","Sodium","mmol/L",147.952018564459,"136","145"
"01-018","Screening","0","2015-02-13","1","Serum","Total Bilirubin","μmol/L",,"5.1","20.5"
"01-018","Screening","0","2015-02-13","1","Blood","WBC count","x 109 cells/L",,"4.5","11"
"01-018","Visit 1","1","2015-04-03","50","Serum","Albumin","g/L",53.508340099935,"35","55"
"01-018","Visit 1","1","2015-04-03","50","Urine","Albumin/Creatinine","mg/g",,"0","30"
"01-018","Visit 1","1","2015-04-03","50","Serum","Alkaline phosphatase (ALP)","μkat/L",1.27851693115755,"0.5","1.5"
"01-018","Visit 1","1","2015-04-03","50","Serum","Aminotransferase, alanine (ALT)","pkat/L",0,"0","0.58"
"01-018","Visit 1","1","2015-04-03","50","Serum","Aminotransferase, aspartate (AST)","pkat/L",0.55800857798992,"0","0.58"
"01-018","Visit 1","1","2015-04-03","50","Serum","Bicarbonate","mmol/L",27.5145904480546,"23","28"
"01-018","Visit 1","1","2015-04-03","50","Serum","Blood Urea Nitrogen","mmol/L",7.94730910045595,"2.9","7.1"
"01-018","Visit 1","1","2015-04-03","50","Serum","Calcium","mmol/L",2.26132147411838,"2.2","2.6"
"01-018","Visit 1","1","2015-04-03","50","Serum","Chloride","mmol/L",100.551675723357,"98","106"
"01-018","Visit 1","1","2015-04-03","50","Serum","Creatinine","μmol/L",50.0836783041031,"61.9","115"
"01-018","Visit 1","1","2015-04-03","50","Serum","Cystatin C","mg/L",0.842091607701247,"0.51","0.98"
"01-018","Visit 1","1","2015-04-03","50","Serum","Direct Bilirubin","μmol/L",3.40394297466829,"0","5.1"
"01-018","Visit 1","1","2015-04-03","50","Serum","eGFR","μmol/L",101.814190306654,"61.9","115"
"01-018","Visit 1","1","2015-04-03","50","Serum","eGFRcys","μmol/L",110.902463133754,"61.9","115"
"01-018","Visit 1","1","2015-04-03","50","Serum","IgE","mg/L",0.221789509189153,"0.1","0.4"
"01-018","Visit 1","1","2015-04-03","50","Serum","Magnesium","mmol/L",0.99420939783842,"0.62","0.99"
"01-018","Visit 1","1","2015-04-03","50","Serum","Phosphorus","mmol/L",1.25279674809042,"0.97","1.45"
"01-018","Visit 1","1","2015-04-03","50","Blood","Platelet count","x 109/L",93.8612715202484,"150","350"
"01-018","Visit 1","1","2015-04-03","50","Serum","Potassium","mmol/L",5.11916364425498,"3.5","5"
"01-018","Visit 1","1","2015-04-03","50","Blood","RBC count","x 1012 cells/L",5.87865076767286,"4.2","5.9"
"01-018","Visit 1","1","2015-04-03","50","Serum","Sodium","mmol/L",144.029566856933,"136","145"
"01-018","Visit 1","1","2015-04-03","50","Serum","Total Bilirubin","μmol/L",19.4234634388753,"5.1","20.5"
"01-018","Visit 1","1","2015-04-03","50","Blood","WBC count","x 109 cells/L",2.06871594240838,"4.5","11"
"01-019","Screening","0","2015-04-24","1","Serum","Albumin","g/L",57.4860131758174,"35","55"
"01-019","Screening","0","2015-04-24","1","Urine","Albumin/Creatinine","mg/g",,"0","30"
"01-019","Screening","0","2015-04-24","1","Serum","Alkaline phosphatase (ALP)","μkat/L",1.18809025118741,"0.5","1.5"
"01-019","Screening","0","2015-04-24","1","Serum","Aminotransferase, alanine (ALT)","pkat/L",0.545292908804896,"0","0.58"
"01-019","Screening","0","2015-04-24","1","Serum","Aminotransferase, aspartate (AST)","pkat/L",0.291294731339835,"0","0.58"
"01-019","Screening","0","2015-04-24","1","Serum","Bicarbonate","mmol/L",24.3448583179207,"23","28"
"01-019","Screening","0","2015-04-24","1","Serum","Blood Urea Nitrogen","mmol/L",,"2.9","7.1"
"01-019","Screening","0","2015-04-24","1","Serum","Calcium","mmol/L",2.47244253330859,"2.2","2.6"
"01-019","Screening","0","2015-04-24","1","Serum","Chloride","mmol/L",99.4386131641155,"98","106"
"01-019","Screening","0","2015-04-24","1","Serum","Creatinine","μmol/L",100.516921643688,"61.9","115"
"01-019","Screening","0","2015-04-24","1","Serum","Cystatin C","mg/L",1.00333459440017,"0.51","0.98"
"01-019","Screening","0","2015-04-24","1","Serum","Direct Bilirubin","μmol/L",3.43435590878002,"0","5.1"
"01-019","Screening","0","2015-04-24","1","Serum","eGFR","μmol/L",96.9747139470848,"61.9","115"
"01-019","Screening","0","2015-04-24","1","Serum","eGFRcys","μmol/L",98.3023229823782,"61.9","115"
"01-019","Screening","0","2015-04-24","1","Serum","IgE","mg/L",,"0.1","0.4"
"01-019","Screening","0","2015-04-24","1","Serum","Magnesium","mmol/L",0.806352137140031,"0.62","0.99"
"01-019","Screening","0","2015-04-24","1","Serum","Phosphorus","mmol/L",,"0.97","1.45"
"01-019","Screening","0","2015-04-24","1","Blood","Platelet count","x 109/L",263.375639447484,"150","350"
"01-019","Screening","0","2015-04-24","1","Serum","Potassium","mmol/L",4.78297523332973,"3.5","5"
"01-019","Screening","0","2015-04-24","1","Blood","RBC count","x 1012 cells/L",6.08167741091646,"4.2","5.9"
"01-019","Screening","0","2015-04-24","1","Serum","Sodium","mmol/L",152.793856075849,"136","145"
"01-019","Screening","0","2015-04-24","1","Serum","Total Bilirubin","μmol/L",,"5.1","20.5"
"01-019","Screening","0","2015-04-24","1","Blood","WBC count","x 109 cells/L",,"4.5","11"
"01-019","Unscheduled 0.1","0.1","2015-05-02","9","Serum","Albumin","g/L",67.6238881123537,"35","55"
"01-019","Unscheduled 0.1","0.1","2015-05-02","9","Urine","Albumin/Creatinine","mg/g",0.366747966936604,"0","30"
"01-019","Unscheduled 0.1","0.1","2015-05-02","9","Serum","Alkaline phosphatase (ALP)","μkat/L",0.853123309298083,"0.5","1.5"
"01-019","Unscheduled 0.1","0.1","2015-05-02","9","Serum","Aminotransferase, alanine (ALT)","pkat/L",0.462756722407591,"0","0.58"
"01-019","Unscheduled 0.1","0.1","2015-05-02","9","Serum","Aminotransferase, aspartate (AST)","pkat/L",0.0378315126039123,"0","0.58"
"01-019","Unscheduled 0.1","0.1","2015-05-02","9","Serum","Bicarbonate","mmol/L",28.098438467577,"23","28"
"01-019","Unscheduled 0.1","0.1","2015-05-02","9","Serum","Blood Urea Nitrogen","mmol/L",2.511784184223,"2.9","7.1"
"01-019","Unscheduled 0.1","0.1","2015-05-02","9","Serum","Calcium","mmol/L",2.14398929052942,"2.2","2.6"
"01-019","Unscheduled 0.1","0.1","2015-05-02","9","Serum","Chloride","mmol/L",104.773808151855,"98","106"
"01-019","Unscheduled 0.1","0.1","2015-05-02","9","Serum","Creatinine","μmol/L",113.504148077403,"61.9","115"
"01-019","Unscheduled 0.1","0.1","2015-05-02","9","Serum","Cystatin C","mg/L",0.405321129071518,"0.51","0.98"
"01-019","Unscheduled 0.1","0.1","2015-05-02","9","Serum","Direct Bilirubin","μmol/L",2.07227810919825,"0","5.1"
"01-019","Unscheduled 0.1","0.1","2015-05-02","9","Serum","eGFR","μmol/L",96.8166155710419,"61.9","115"
"01-019","Unscheduled 0.1","0.1","2015-05-02","9","Serum","eGFRcys","μmol/L",74.0911007798702,"61.9","115"
"01-019","Unscheduled 0.1","0.1","2015-05-02","9","Serum","IgE","mg/L",0.103584619073994,"0.1","0.4"
"01-019","Unscheduled 0.1","0.1","2015-05-02","9","Serum","Magnesium","mmol/L",0.512705538407682,"0.62","0.99"
"01-019","Unscheduled 0.1","0.1","2015-05-02","9","Serum","Phosphorus","mmol/L",1.01501663863849,"0.97","1.45"
"01-019","Unscheduled 0.1","0.1","2015-05-02","9","Blood","Platelet count","x 109/L",149.268776927633,"150","350"
"01-019","Unscheduled 0.1","0.1","2015-05-02","9","Serum","Potassium","mmol/L",4.41754513250465,"3.5","5"
"01-019","Unscheduled 0.1","0.1","2015-05-02","9","Blood","RBC count","x 1012 cells/L",5.75310328737569,"4.2","5.9"
"01-019","Unscheduled 0.1","0.1","2015-05-02","9","Serum","Sodium","mmol/L",142.565394787779,"136","145"
"01-019","Unscheduled 0.1","0.1","2015-05-02","9","Serum","Total Bilirubin","μmol/L",23.435406748519,"5.1","20.5"
"01-019","Unscheduled 0.1","0.1","2015-05-02","9","Blood","WBC count","x 109 cells/L",5.45803130233414,"4.5","11"
"01-019","Visit 1","1","2015-06-23","61","Serum","Albumin","g/L",57.2574410792077,"35","55"
"01-019","Visit 1","1","2015-06-23","61","Urine","Albumin/Creatinine","mg/g",16.9301871356287,"0","30"
"01-019","Visit 1","1","2015-06-23","61","Serum","Alkaline phosphatase (ALP)","μkat/L",0.537420946999933,"0.5","1.5"
"01-019","Visit 1","1","2015-06-23","61","Serum","Aminotransferase, alanine (ALT)","pkat/L",0.148098470753239,"0","0.58"
"01-019","Visit 1","1","2015-06-23","61","Serum","Aminotransferase, aspartate (AST)","pkat/L",0.00223815718479303,"0","0.58"
"01-019","Visit 1","1","2015-06-23","61","Serum","Bicarbonate","mmol/L",27.6803538083809,"23","28"
"01-019","Visit 1","1","2015-06-23","61","Serum","Blood Urea Nitrogen","mmol/L",2.54165777144948,"2.9","7.1"
"01-019","Visit 1","1","2015-06-23","61","Serum","Calcium","mmol/L",2.77505578573934,"2.2","2.6"
"01-019","Visit 1","1","2015-06-23","61","Serum","Chloride","mmol/L",101.967000289813,"98","106"
"01-019","Visit 1","1","2015-06-23","61","Serum","Creatinine","μmol/L",52.9515963286334,"61.9","115"
"01-019","Visit 1","1","2015-06-23","61","Serum","Cystatin C","mg/L",0.574704421068743,"0.51","0.98"
"01-019","Visit 1","1","2015-06-23","61","Serum","Direct Bilirubin","μmol/L",0,"0","5.1"
"01-019","Visit 1","1","2015-06-23","61","Serum","eGFR","μmol/L",61.0175572494645,"61.9","115"
"01-019","Visit 1","1","2015-06-23","61","Serum","eGFRcys","μmol/L",102.130789591132,"61.9","115"
"01-019","Visit 1","1","2015-06-23","61","Serum","IgE","mg/L",0.235278427865974,"0.1","0.4"
"01-019","Visit 1","1","2015-06-23","61","Serum","Magnesium","mmol/L",0.69064872988183,"0.62","0.99"
"01-019","Visit 1","1","2015-06-23","61","Serum","Phosphorus","mmol/L",1.22881405037119,"0.97","1.45"
"01-019","Visit 1","1","2015-06-23","61","Blood","Platelet count","x 109/L",432.067395974872,"150","350"
"01-019","Visit 1","1","2015-06-23","61","Serum","Potassium","mmol/L",5.83861879781182,"3.5","5"
"01-019","Visit 1","1","2015-06-23","61","Blood","RBC count","x 1012 cells/L",6.32644713721559,"4.2","5.9"
"01-019","Visit 1","1","2015-06-23","61","Serum","Sodium","mmol/L",137.167034226649,"136","145"
"01-019","Visit 1","1","2015-06-23","61","Serum","Total Bilirubin","μmol/L",20.6672728503848,"5.1","20.5"
"01-019","Visit 1","1","2015-06-23","61","Blood","WBC count","x 109 cells/L",8.08327622573689,"4.5","11"
"01-019","Visit 2","2","2015-08-18","117","Serum","Albumin","g/L",60.2915900638858,"35","55"
"01-019","Visit 2","2","2015-08-18","117","Urine","Albumin/Creatinine","mg/g",17.3990135337875,"0","30"
"01-019","Visit 2","2","2015-08-18","117","Serum","Alkaline phosphatase (ALP)","μkat/L",0.789336592254058,"0.5","1.5"
"01-019","Visit 2","2","2015-08-18","117","Serum","Aminotransferase, alanine (ALT)","pkat/L",0.0626599285253431,"0","0.58"
"01-019","Visit 2","2","2015-08-18","117","Serum","Aminotransferase, aspartate (AST)","pkat/L",,"0","0.58"
"01-019","Visit 2","2","2015-08-18","117","Serum","Bicarbonate","mmol/L",23.9168350853592,"23","28"
"01-019","Visit 2","2","2015-08-18","117","Serum","Blood Urea Nitrogen","mmol/L",,"2.9","7.1"
"01-019","Visit 2","2","2015-08-18","117","Serum","Calcium","mmol/L",,"2.2","2.6"
"01-019","Visit 2","2","2015-08-18","117","Serum","Chloride","mmol/L",108.544002170491,"98","106"
"01-019","Visit 2","2","2015-08-18","117","Serum","Creatinine","μmol/L",93.6878415403678,"61.9","115"
"01-019","Visit 2","2","2015-08-18","117","Serum","Cystatin C","mg/L",0.843517482813255,"0.51","0.98"
"01-019","Visit 2","2","2015-08-18","117","Serum","Direct Bilirubin","μmol/L",4.73170791568125,"0","5.1"
"01-019","Visit 2","2","2015-08-18","117","Serum","eGFR","μmol/L",114.477794107604,"61.9","115"
"01-019","Visit 2","2","2015-08-18","117","Serum","eGFRcys","μmol/L",58.6810547207313,"61.9","115"
"01-019","Visit 2","2","2015-08-18","117","Serum","IgE","mg/L",0.3905094608329,"0.1","0.4"
"01-019","Visit 2","2","2015-08-18","117","Serum","Magnesium","mmol/L",,"0.62","0.99"
"01-019","Visit 2","2","2015-08-18","117","Serum","Phosphorus","mmol/L",1.17260225849741,"0.97","1.45"
"01-019","Visit 2","2","2015-08-18","117","Blood","Platelet count","x 109/L",160.911004175651,"150","350"
"01-019","Visit 2","2","2015-08-18","117","Serum","Potassium","mmol/L",,"3.5","5"
"01-019","Visit 2","2","2015-08-18","117","Blood","RBC count","x 1012 cells/L",5.48793168129235,"4.2","5.9"
"01-019","Visit 2","2","2015-08-18","117","Serum","Sodium","mmol/L",145.810249275706,"136","145"
"01-019","Visit 2","2","2015-08-18","117","Serum","Total Bilirubin","μmol/L",9.79316947662659,"5.1","20.5"
"01-019","Visit 2","2","2015-08-18","117","Blood","WBC count","x 109 cells/L",3.2850660843985,"4.5","11"
"01-019","Visit 4","4","2015-12-01","222","Serum","Albumin","g/L",,"35","55"
"01-019","Visit 4","4","2015-12-01","222","Urine","Albumin/Creatinine","mg/g",26.7389452803226,"0","30"
"01-019","Visit 4","4","2015-12-01","222","Serum","Alkaline phosphatase (ALP)","μkat/L",0,"0.5","1.5"
"01-019","Visit 4","4","2015-12-01","222","Serum","Aminotransferase, alanine (ALT)","pkat/L",0.531414096369072,"0","0.58"
"01-019","Visit 4","4","2015-12-01","222","Serum","Aminotransferase, aspartate (AST)","pkat/L",0.624304969270308,"0","0.58"
"01-019","Visit 4","4","2015-12-01","222","Serum","Bicarbonate","mmol/L",27.4050453662973,"23","28"
"01-019","Visit 4","4","2015-12-01","222","Serum","Blood Urea Nitrogen","mmol/L",6.23076226442721,"2.9","7.1"
"01-019","Visit 4","4","2015-12-01","222","Serum","Calcium","mmol/L",,"2.2","2.6"
"01-019","Visit 4","4","2015-12-01","222","Serum","Chloride","mmol/L",104.845724891523,"98","106"
"01-019","Visit 4","4","2015-12-01","222","Serum","Creatinine","μmol/L",83.1828951062003,"61.9","115"
"01-019","Visit 4","4","2015-12-01","222","Serum","Cystatin C","mg/L",0.814720465648902,"0.51","0.98"
"01-019","Visit 4","4","2015-12-01","222","Serum","Direct Bilirubin","μmol/L",2.87501560726816,"0","5.1"
"01-019","Visit 4","4","2015-12-01","222","Serum","eGFR","μmol/L",,"61.9","115"
"01-019","Visit 4","4","2015-12-01","222","Serum","eGFRcys","μmol/L",66.151095250349,"61.9","115"
"01-019","Visit 4","4","2015-12-01","222","Serum","IgE","mg/L",0.295320860668337,"0.1","0.4"
"01-019","Visit 4","4","2015-12-01","222","Serum","Magnesium","mmol/L",0.794536434279062,"0.62","0.99"
"01-019","Visit 4","4","2015-12-01","222","Serum","Phosphorus","mmol/L",0.90139064965807,"0.97","1.45"
"01-019","Visit 4","4","2015-12-01","222","Blood","Platelet count","x 109/L",393.477837376006,"150","350"
"01-019","Visit 4","4","2015-12-01","222","Serum","Potassium","mmol/L",3.83829868661704,"3.5","5"
"01-019","Visit 4","4","2015-12-01","222","Blood","RBC count","x 1012 cells/L",4.25398900504742,"4.2","5.9"
"01-019","Visit 4","4","2015-12-01","222","Serum","Sodium","mmol/L",139.274523587072,"136","145"
"01-019","Visit 4","4","2015-12-01","222","Serum","Total Bilirubin","μmol/L",8.4081573658328,"5.1","20.5"
"01-019","Visit 4","4","2015-12-01","222","Blood","WBC count","x 109 cells/L",8.70248929236447,"4.5","11"
"01-021","Screening","0","2015-10-04","1","Serum","Albumin","g/L",41.2086906308952,"35","55"
"01-021","Screening","0","2015-10-04","1","Urine","Albumin/Creatinine","mg/g",,"0","30"
"01-021","Screening","0","2015-10-04","1","Serum","Alkaline phosphatase (ALP)","μkat/L",0.331030746000376,"0.5","1.5"
"01-021","Screening","0","2015-10-04","1","Serum","Aminotransferase, alanine (ALT)","pkat/L",0.450186431774534,"0","0.58"
"01-021","Screening","0","2015-10-04","1","Serum","Aminotransferase, aspartate (AST)","pkat/L",0.890058454872996,"0","0.58"
"01-021","Screening","0","2015-10-04","1","Serum","Bicarbonate","mmol/L",26.2974677861248,"23","28"
"01-021","Screening","0","2015-10-04","1","Serum","Blood Urea Nitrogen","mmol/L",,"2.9","7.1"
"01-021","Screening","0","2015-10-04","1","Serum","Calcium","mmol/L",,"2.2","2.6"
"01-021","Screening","0","2015-10-04","1","Serum","Chloride","mmol/L",103.480872259855,"98","106"
"01-021","Screening","0","2015-10-04","1","Serum","Creatinine","μmol/L",127.910875339838,"61.9","115"
"01-021","Screening","0","2015-10-04","1","Serum","Cystatin C","mg/L",0.984301760262466,"0.51","0.98"
"01-021","Screening","0","2015-10-04","1","Serum","Direct Bilirubin","μmol/L",0,"0","5.1"
"01-021","Screening","0","2015-10-04","1","Serum","eGFR","μmol/L",72.2061416541977,"61.9","115"
"01-021","Screening","0","2015-10-04","1","Serum","eGFRcys","μmol/L",122.944350763674,"61.9","115"
"01-021","Screening","0","2015-10-04","1","Serum","IgE","mg/L",0.520770730971307,"0.1","0.4"
"01-021","Screening","0","2015-10-04","1","Serum","Magnesium","mmol/L",0.51937038851626,"0.62","0.99"
"01-021","Screening","0","2015-10-04","1","Serum","Phosphorus","mmol/L",,"0.97","1.45"
"01-021","Screening","0","2015-10-04","1","Blood","Platelet count","x 109/L",237.065327412156,"150","350"
"01-021","Screening","0","2015-10-04","1","Serum","Potassium","mmol/L",5.12679744639948,"3.5","5"
"01-021","Screening","0","2015-10-04","1","Blood","RBC count","x 1012 cells/L",5.61369245523724,"4.2","5.9"
"01-021","Screening","0","2015-10-04","1","Serum","Sodium","mmol/L",140.694433130107,"136","145"
"01-021","Screening","0","2015-10-04","1","Serum","Total Bilirubin","μmol/L",,"5.1","20.5"
"01-021","Screening","0","2015-10-04","1","Blood","WBC count","x 109 cells/L",,"4.5","11"
"01-022","Screening","0","2015-10-01","1","Serum","Albumin","g/L",54.7565714303097,"35","55"
"01-022","Screening","0","2015-10-01","1","Urine","Albumin/Creatinine","mg/g",,"0","30"
"01-022","Screening","0","2015-10-01","1","Serum","Alkaline phosphatase (ALP)","μkat/L",1.04724109133313,"0.5","1.5"
"01-022","Screening","0","2015-10-01","1","Serum","Aminotransferase, alanine (ALT)","pkat/L",0.0225567847265987,"0","0.58"
"01-022","Screening","0","2015-10-01","1","Serum","Aminotransferase, aspartate (AST)","pkat/L",0.121905876777647,"0","0.58"
"01-022","Screening","0","2015-10-01","1","Serum","Bicarbonate","mmol/L",25.6874871545308,"23","28"
"01-022","Screening","0","2015-10-01","1","Serum","Blood Urea Nitrogen","mmol/L",,"2.9","7.1"
"01-022","Screening","0","2015-10-01","1","Serum","Calcium","mmol/L",2.57410144261315,"2.2","2.6"
"01-022","Screening","0","2015-10-01","1","Serum","Chloride","mmol/L",101.192824662413,"98","106"
"01-022","Screening","0","2015-10-01","1","Serum","Creatinine","μmol/L",95.2932948829136,"61.9","115"
"01-022","Screening","0","2015-10-01","1","Serum","Cystatin C","mg/L",0.810627265785414,"0.51","0.98"
"01-022","Screening","0","2015-10-01","1","Serum","Direct Bilirubin","μmol/L",2.98136249313584,"0","5.1"
"01-022","Screening","0","2015-10-01","1","Serum","eGFR","μmol/L",82.8052795739994,"61.9","115"
"01-022","Screening","0","2015-10-01","1","Serum","eGFRcys","μmol/L",140.7264836672,"61.9","115"
"01-022","Screening","0","2015-10-01","1","Serum","IgE","mg/L",0.393583221314051,"0.1","0.4"
"01-022","Screening","0","2015-10-01","1","Serum","Magnesium","mmol/L",0.912919367021783,"0.62","0.99"
"01-022","Screening","0","2015-10-01","1","Serum","Phosphorus","mmol/L",,"0.97","1.45"
"01-022","Screening","0","2015-10-01","1","Blood","Platelet count","x 109/L",478.725713599162,"150","350"
"01-022","Screening","0","2015-10-01","1","Serum","Potassium","mmol/L",3.02428720831948,"3.5","5"
"01-022","Screening","0","2015-10-01","1","Blood","RBC count","x 1012 cells/L",4.73214194354968,"4.2","5.9"
"01-022","Screening","0","2015-10-01","1","Serum","Sodium","mmol/L",137.031131661536,"136","145"
"01-022","Screening","0","2015-10-01","1","Serum","Total Bilirubin","μmol/L",,"5.1","20.5"
"01-022","Screening","0","2015-10-01","1","Blood","WBC count","x 109 cells/L",,"4.5","11"
"01-022","Visit 1","1","2015-11-26","57","Serum","Albumin","g/L",32.7187055339063,"35","55"
"01-022","Visit 1","1","2015-11-26","57","Urine","Albumin/Creatinine","mg/g",0,"0","30"
"01-022","Visit 1","1","2015-11-26","57","Serum","Alkaline phosphatase (ALP)","μkat/L",,"0.5","1.5"
"01-022","Visit 1","1","2015-11-26","57","Serum","Aminotransferase, alanine (ALT)","pkat/L",0.105683200189225,"0","0.58"
"01-022","Visit 1","1","2015-11-26","57","Serum","Aminotransferase, aspartate (AST)","pkat/L",0.714553314684066,"0","0.58"
"01-022","Visit 1","1","2015-11-26","57","Serum","Bicarbonate","mmol/L",26.2659192301856,"23","28"
"01-022","Visit 1","1","2015-11-26","57","Serum","Blood Urea Nitrogen","mmol/L",7.39305182749634,"2.9","7.1"
"01-022","Visit 1","1","2015-11-26","57","Serum","Calcium","mmol/L",2.46519356676346,"2.2","2.6"
"01-022","Visit 1","1","2015-11-26","57","Serum","Chloride","mmol/L",100.394743663579,"98","106"
"01-022","Visit 1","1","2015-11-26","57","Serum","Creatinine","μmol/L",89.2510249509926,"61.9","115"
"01-022","Visit 1","1","2015-11-26","57","Serum","Cystatin C","mg/L",0.677483443119087,"0.51","0.98"
"01-022","Visit 1","1","2015-11-26","57","Serum","Direct Bilirubin","μmol/L",0,"0","5.1"
"01-022","Visit 1","1","2015-11-26","57","Serum","eGFR","μmol/L",63.2581601535101,"61.9","115"
"01-022","Visit 1","1","2015-11-26","57","Serum","eGFRcys","μmol/L",106.639159393711,"61.9","115"
"01-022","Visit 1","1","2015-11-26","57","Serum","IgE","mg/L",0.39258526592332,"0.1","0.4"
"01-022","Visit 1","1","2015-11-26","57","Serum","Magnesium","mmol/L",0.715036105979428,"0.62","0.99"
"01-022","Visit 1","1","2015-11-26","57","Serum","Phosphorus","mmol/L",0.72102553248096,"0.97","1.45"
"01-022","Visit 1","1","2015-11-26","57","Blood","Platelet count","x 109/L",285.49234216176,"150","350"
"01-022","Visit 1","1","2015-11-26","57","Serum","Potassium","mmol/L",4.37764484491674,"3.5","5"
"01-022","Visit 1","1","2015-11-26","57","Blood","RBC count","x 1012 cells/L",5.78828867199606,"4.2","5.9"
"01-022","Visit 1","1","2015-11-26","57","Serum","Sodium","mmol/L",142.52704104261,"136","145"
"01-022","Visit 1","1","2015-11-26","57","Serum","Total Bilirubin","μmol/L",32.0282250571428,"5.1","20.5"
"01-022","Visit 1","1","2015-11-26","57","Blood","WBC count","x 109 cells/L",8.79515217558147,"4.5","11"
"01-022","Visit 2","2","2016-01-23","115","Serum","Albumin","g/L",54.5887929946124,"35","55"
"01-022","Visit 2","2","2016-01-23","115","Urine","Albumin/Creatinine","mg/g",0,"0","30"
"01-022","Visit 2","2","2016-01-23","115","Serum","Alkaline phosphatase (ALP)","μkat/L",0.893954713407632,"0.5","1.5"
"01-022","Visit 2","2","2016-01-23","115","Serum","Aminotransferase, alanine (ALT)","pkat/L",0.585914294990851,"0","0.58"
"01-022","Visit 2","2","2016-01-23","115","Serum","Aminotransferase, aspartate (AST)","pkat/L",,"0","0.58"
"01-022","Visit 2","2","2016-01-23","115","Serum","Bicarbonate","mmol/L",28.321857451314,"23","28"
"01-022","Visit 2","2","2016-01-23","115","Serum","Blood Urea Nitrogen","mmol/L",,"2.9","7.1"
"01-022","Visit 2","2","2016-01-23","115","Serum","Calcium","mmol/L",,"2.2","2.6"
"01-022","Visit 2","2","2016-01-23","115","Serum","Chloride","mmol/L",99.0749883469822,"98","106"
"01-022","Visit 2","2","2016-01-23","115","Serum","Creatinine","μmol/L",50.1299426796595,"61.9","115"
"01-022","Visit 2","2","2016-01-23","115","Serum","Cystatin C","mg/L",0.922226523698701,"0.51","0.98"
"01-022","Visit 2","2","2016-01-23","115","Serum","Direct Bilirubin","μmol/L",6.2305843791883,"0","5.1"
"01-022","Visit 2","2","2016-01-23","115","Serum","eGFR","μmol/L",80.244599752557,"61.9","115"
"01-022","Visit 2","2","2016-01-23","115","Serum","eGFRcys","μmol/L",53.1816715177975,"61.9","115"
"01-022","Visit 2","2","2016-01-23","115","Serum","IgE","mg/L",0.315417597729112,"0.1","0.4"
"01-022","Visit 2","2","2016-01-23","115","Serum","Magnesium","mmol/L",,"0.62","0.99"
"01-022","Visit 2","2","2016-01-23","115","Serum","Phosphorus","mmol/L",1.64620096070695,"0.97","1.45"
"01-022","Visit 2","2","2016-01-23","115","Blood","Platelet count","x 109/L",205.122260590644,"150","350"
"01-022","Visit 2","2","2016-01-23","115","Serum","Potassium","mmol/L",,"3.5","5"
"01-022","Visit 2","2","2016-01-23","115","Blood","RBC count","x 1012 cells/L",4.69977087722522,"4.2","5.9"
"01-022","Visit 2","2","2016-01-23","115","Serum","Sodium","mmol/L",138.453745393604,"136","145"
"01-022","Visit 2","2","2016-01-23","115","Serum","Total Bilirubin","μmol/L",0.314256117676941,"5.1","20.5"
"01-022","Visit 2","2","2016-01-23","115","Blood","WBC count","x 109 cells/L",5.96057480791355,"4.5","11"
"01-022","Visit 3","3","2016-03-11","163","Serum","Albumin","g/L",36.3712761694224,"35","55"
"01-022","Visit 3","3","2016-03-11","163","Urine","Albumin/Creatinine","mg/g",0,"0","30"
"01-022","Visit 3","3","2016-03-11","163","Serum","Alkaline phosphatase (ALP)","μkat/L",,"0.5","1.5"
"01-022","Visit 3","3","2016-03-11","163","Serum","Aminotransferase, alanine (ALT)","pkat/L",0,"0","0.58"
"01-022","Visit 3","3","2016-03-11","163","Serum","Aminotransferase, aspartate (AST)","pkat/L",0.360566752777825,"0","0.58"
"01-022","Visit 3","3","2016-03-11","163","Serum","Bicarbonate","mmol/L",23.6949828590404,"23","28"
"01-022","Visit 3","3","2016-03-11","163","Serum","Blood Urea Nitrogen","mmol/L",,"2.9","7.1"
"01-022","Visit 3","3","2016-03-11","163","Serum","Calcium","mmol/L",2.35781072789929,"2.2","2.6"
"01-022","Visit 3","3","2016-03-11","163","Serum","Chloride","mmol/L",104.012436703009,"98","106"
"01-022","Visit 3","3","2016-03-11","163","Serum","Creatinine","μmol/L",124.853711471895,"61.9","115"
"01-022","Visit 3","3","2016-03-11","163","Serum","Cystatin C","mg/L",0.760590442314308,"0.51","0.98"
"01-022","Visit 3","3","2016-03-11","163","Serum","Direct Bilirubin","μmol/L",0,"0","5.1"
"01-022","Visit 3","3","2016-03-11","163","Serum","eGFR","μmol/L",55.442200575423,"61.9","115"
"01-022","Visit 3","3","2016-03-11","163","Serum","eGFRcys","μmol/L",105.422437721402,"61.9","115"
"01-022","Visit 3","3","2016-03-11","163","Serum","IgE","mg/L",0.124276980686853,"0.1","0.4"
"01-022","Visit 3","3","2016-03-11","163","Serum","Magnesium","mmol/L",0.814948988914185,"0.62","0.99"
"01-022","Visit 3","3","2016-03-11","163","Serum","Phosphorus","mmol/L",1.11869334686261,"0.97","1.45"
"01-022","Visit 3","3","2016-03-11","163","Blood","Platelet count","x 109/L",264.983077111772,"150","350"
"01-022","Visit 3","3","2016-03-11","163","Serum","Potassium","mmol/L",3.72660081739287,"3.5","5"
"01-022","Visit 3","3","2016-03-11","163","Blood","RBC count","x 1012 cells/L",,"4.2","5.9"
"01-022","Visit 3","3","2016-03-11","163","Serum","Sodium","mmol/L",137.083560371785,"136","145"
"01-022","Visit 3","3","2016-03-11","163","Serum","Total Bilirubin","μmol/L",11.1545148469797,"5.1","20.5"
"01-022","Visit 3","3","2016-03-11","163","Blood","WBC count","x 109 cells/L",,"4.5","11"
"01-022","Visit 4","4","2016-05-13","226","Serum","Albumin","g/L",,"35","55"
"01-022","Visit 4","4","2016-05-13","226","Urine","Albumin/Creatinine","mg/g",20.5362023085515,"0","30"
"01-022","Visit 4","4","2016-05-13","226","Serum","Alkaline phosphatase (ALP)","μkat/L",1.00831139155335,"0.5","1.5"
"01-022","Visit 4","4","2016-05-13","226","Serum","Aminotransferase, alanine (ALT)","pkat/L",0.28017350379909,"0","0.58"
"01-022","Visit 4","4","2016-05-13","226","Serum","Aminotransferase, aspartate (AST)","pkat/L",0.4639192009944,"0","0.58"
"01-022","Visit 4","4","2016-05-13","226","Serum","Bicarbonate","mmol/L",22.3508064918415,"23","28"
"01-022","Visit 4","4","2016-05-13","226","Serum","Blood Urea Nitrogen","mmol/L",3.89432266956969,"2.9","7.1"
"01-022","Visit 4","4","2016-05-13","226","Serum","Calcium","mmol/L",,"2.2","2.6"
"01-022","Visit 4","4","2016-05-13","226","Serum","Chloride","mmol/L",100.705715765377,"98","106"
"01-022","Visit 4","4","2016-05-13","226","Serum","Creatinine","μmol/L",91.3337856066321,"61.9","115"
"01-022","Visit 4","4","2016-05-13","226","Serum","Cystatin C","mg/L",0.547615328310874,"0.51","0.98"
"01-022","Visit 4","4","2016-05-13","226","Serum","Direct Bilirubin","μmol/L",0.863272358172214,"0","5.1"
"01-022","Visit 4","4","2016-05-13","226","Serum","eGFR","μmol/L",,"61.9","115"
"01-022","Visit 4","4","2016-05-13","226","Serum","eGFRcys","μmol/L",99.8030985220355,"61.9","115"
"01-022","Visit 4","4","2016-05-13","226","Serum","IgE","mg/L",0.327187267616949,"0.1","0.4"
"01-022","Visit 4","4","2016-05-13","226","Serum","Magnesium","mmol/L",1.21079024550231,"0.62","0.99"
"01-022","Visit 4","4","2016-05-13","226","Serum","Phosphorus","mmol/L",1.05283923150428,"0.97","1.45"
"01-022","Visit 4","4","2016-05-13","226","Blood","Platelet count","x 109/L",255.070008583736,"150","350"
"01-022","Visit 4","4","2016-05-13","226","Serum","Potassium","mmol/L",4.55521347540194,"3.5","5"
"01-022","Visit 4","4","2016-05-13","226","Blood","RBC count","x 1012 cells/L",5.10526209364993,"4.2","5.9"
"01-022","Visit 4","4","2016-05-13","226","Serum","Sodium","mmol/L",136.670244193473,"136","145"
"01-022","Visit 4","4","2016-05-13","226","Serum","Total Bilirubin","μmol/L",18.6517609515545,"5.1","20.5"
"01-022","Visit 4","4","2016-05-13","226","Blood","WBC count","x 109 cells/L",8.82683646166612,"4.5","11"
"01-022","Visit 5","5","2016-07-08","282","Serum","Albumin","g/L",45.1547148763815,"35","55"
"01-022","Visit 5","5","2016-07-08","282","Urine","Albumin/Creatinine","mg/g",24.2862527050463,"0","30"
"01-022","Visit 5","5","2016-07-08","282","Serum","Alkaline phosphatase (ALP)","μkat/L",0.717934585438291,"0.5","1.5"
"01-022","Visit 5","5","2016-07-08","282","Serum","Aminotransferase, alanine (ALT)","pkat/L",0.295774262742186,"0","0.58"
"01-022","Visit 5","5","2016-07-08","282","Serum","Aminotransferase, aspartate (AST)","pkat/L",0.42467494768608,"0","0.58"
"01-022","Visit 5","5","2016-07-08","282","Serum","Bicarbonate","mmol/L",27.0057043170496,"23","28"
"01-022","Visit 5","5","2016-07-08","282","Serum","Blood Urea Nitrogen","mmol/L",7.01951093449321,"2.9","7.1"
"01-022","Visit 5","5","2016-07-08","282","Serum","Calcium","mmol/L",1.86943211757689,"2.2","2.6"
"01-022","Visit 5","5","2016-07-08","282","Serum","Chloride","mmol/L",101.093840461715,"98","106"
"01-022","Visit 5","5","2016-07-08","282","Serum","Creatinine","μmol/L",33.8888694488139,"61.9","115"
"01-022","Visit 5","5","2016-07-08","282","Serum","Cystatin C","mg/L",0.60927035745577,"0.51","0.98"
"01-022","Visit 5","5","2016-07-08","282","Serum","Direct Bilirubin","μmol/L",0,"0","5.1"
"01-022","Visit 5","5","2016-07-08","282","Serum","eGFR","μmol/L",114.935845961153,"61.9","115"
"01-022","Visit 5","5","2016-07-08","282","Serum","eGFRcys","μmol/L",80.4937100140235,"61.9","115"
"01-022","Visit 5","5","2016-07-08","282","Serum","IgE","mg/L",0.285895027127311,"0.1","0.4"
"01-022","Visit 5","5","2016-07-08","282","Serum","Magnesium","mmol/L",0.644765370714938,"0.62","0.99"
"01-022","Visit 5","5","2016-07-08","282","Serum","Phosphorus","mmol/L",1.14588772920531,"0.97","1.45"
"01-022","Visit 5","5","2016-07-08","282","Blood","Platelet count","x 109/L",347.594627730983,"150","350"
"01-022","Visit 5","5","2016-07-08","282","Serum","Potassium","mmol/L",4.7828023403844,"3.5","5"
"01-022","Visit 5","5","2016-07-08","282","Blood","RBC count","x 1012 cells/L",5.15022720214334,"4.2","5.9"
"01-022","Visit 5","5","2016-07-08","282","Serum","Sodium","mmol/L",144.692515576195,"136","145"
"01-022","Visit 5","5","2016-07-08","282","Serum","Total Bilirubin","μmol/L",,"5.1","20.5"
"01-022","Visit 5","5","2016-07-08","282","Blood","WBC count","x 109 cells/L",7.29486795074167,"4.5","11"
"01-022","Unscheduled 5.1","5.1","2016-07-16","290","Serum","Albumin","g/L",51.1467463566321,"35","55"
"01-022","Unscheduled 5.1","5.1","2016-07-16","290","Urine","Albumin/Creatinine","mg/g",10.0284785012624,"0","30"
"01-022","Unscheduled 5.1","5.1","2016-07-16","290","Serum","Alkaline phosphatase (ALP)","μkat/L",1.23090199544245,"0.5","1.5"
"01-022","Unscheduled 5.1","5.1","2016-07-16","290","Serum","Aminotransferase, alanine (ALT)","pkat/L",0.557286653906879,"0","0.58"
"01-022","Unscheduled 5.1","5.1","2016-07-16","290","Serum","Aminotransferase, aspartate (AST)","pkat/L",0.217027772420626,"0","0.58"
"01-022","Unscheduled 5.1","5.1","2016-07-16","290","Serum","Bicarbonate","mmol/L",26.7289536864398,"23","28"
"01-022","Unscheduled 5.1","5.1","2016-07-16","290","Serum","Blood Urea Nitrogen","mmol/L",5.88081053598787,"2.9","7.1"
"01-022","Unscheduled 5.1","5.1","2016-07-16","290","Serum","Calcium","mmol/L",2.73531971891663,"2.2","2.6"
"01-022","Unscheduled 5.1","5.1","2016-07-16","290","Serum","Chloride","mmol/L",104.160184789449,"98","106"
"01-022","Unscheduled 5.1","5.1","2016-07-16","290","Serum","Creatinine","μmol/L",133.190719718017,"61.9","115"
"01-022","Unscheduled 5.1","5.1","2016-07-16","290","Serum","Cystatin C","mg/L",0.830969591988671,"0.51","0.98"
"01-022","Unscheduled 5.1","5.1","2016-07-16","290","Serum","Direct Bilirubin","μmol/L",2.42786697073281,"0","5.1"
"01-022","Unscheduled 5.1","5.1","2016-07-16","290","Serum","eGFR","μmol/L",111.623867415246,"61.9","115"
"01-022","Unscheduled 5.1","5.1","2016-07-16","290","Serum","eGFRcys","μmol/L",117.731944468375,"61.9","115"
"01-022","Unscheduled 5.1","5.1","2016-07-16","290","Serum","IgE","mg/L",0.285369459705208,"0.1","0.4"
"01-022","Unscheduled 5.1","5.1","2016-07-16","290","Serum","Magnesium","mmol/L",0.97798304362466,"0.62","0.99"
"01-022","Unscheduled 5.1","5.1","2016-07-16","290","Serum","Phosphorus","mmol/L",1.19175844108267,"0.97","1.45"
"01-022","Unscheduled 5.1","5.1","2016-07-16","290","Blood","Platelet count","x 109/L",273.651596846192,"150","350"
"01-022","Unscheduled 5.1","5.1","2016-07-16","290","Serum","Potassium","mmol/L",4.29991731964586,"3.5","5"
"01-022","Unscheduled 5.1","5.1","2016-07-16","290","Blood","RBC count","x 1012 cells/L",5.79575037446889,"4.2","5.9"
"01-022","Unscheduled 5.1","5.1","2016-07-16","290","Serum","Sodium","mmol/L",153.123126700979,"136","145"
"01-022","Unscheduled 5.1","5.1","2016-07-16","290","Serum","Total Bilirubin","μmol/L",12.5028409616892,"5.1","20.5"
"01-022","Unscheduled 5.1","5.1","2016-07-16","290","Blood","WBC count","x 109 cells/L",9.454394874672,"4.5","11"
"01-022","Visit 6","6","2016-09-02","338","Serum","Albumin","g/L",45.7437981352399,"35","55"
"01-022","Visit 6","6","2016-09-02","338","Urine","Albumin/Creatinine","mg/g",4.28537818704931,"0","30"
"01-022","Visit 6","6","2016-09-02","338","Serum","Alkaline phosphatase (ALP)","μkat/L",0.624484370044109,"0.5","1.5"
"01-022","Visit 6","6","2016-09-02","338","Serum","Aminotransferase, alanine (ALT)","pkat/L",0.480107748933718,"0","0.58"
"01-022","Visit 6","6","2016-09-02","338","Serum","Aminotransferase, aspartate (AST)","pkat/L",0.0935739394444002,"0","0.58"
"01-022","Visit 6","6","2016-09-02","338","Serum","Bicarbonate","mmol/L",25.5849207789832,"23","28"
"01-022","Visit 6","6","2016-09-02","338","Serum","Blood Urea Nitrogen","mmol/L",3.94424585809532,"2.9","7.1"
"01-022","Visit 6","6","2016-09-02","338","Serum","Calcium","mmol/L",2.60933969541243,"2.2","2.6"
"01-022","Visit 6","6","2016-09-02","338","Serum","Chloride","mmol/L",98.9880452614837,"98","106"
"01-022","Visit 6","6","2016-09-02","338","Serum","Creatinine","μmol/L",47.2548449224862,"61.9","115"
"01-022","Visit 6","6","2016-09-02","338","Serum","Cystatin C","mg/L",0.322529500372917,"0.51","0.98"
"01-022","Visit 6","6","2016-09-02","338","Serum","Direct Bilirubin","μmol/L",1.05613744943636,"0","5.1"
"01-022","Visit 6","6","2016-09-02","338","Serum","eGFR","μmol/L",67.9861195857478,"61.9","115"
"01-022","Visit 6","6","2016-09-02","338","Serum","eGFRcys","μmol/L",131.737924910913,"61.9","115"
"01-022","Visit 6","6","2016-09-02","338","Serum","IgE","mg/L",0.267280762627622,"0.1","0.4"
"01-022","Visit 6","6","2016-09-02","338","Serum","Magnesium","mmol/L",,"0.62","0.99"
"01-022","Visit 6","6","2016-09-02","338","Serum","Phosphorus","mmol/L",1.24452964928307,"0.97","1.45"
"01-022","Visit 6","6","2016-09-02","338","Blood","Platelet count","x 109/L",360.933729568853,"150","350"
"01-022","Visit 6","6","2016-09-02","338","Serum","Potassium","mmol/L",4.76053372623362,"3.5","5"
"01-022","Visit 6","6","2016-09-02","338","Blood","RBC count","x 1012 cells/L",5.63682353578665,"4.2","5.9"
"01-022","Visit 6","6","2016-09-02","338","Serum","Sodium","mmol/L",138.879363140669,"136","145"
"01-022","Visit 6","6","2016-09-02","338","Serum","Total Bilirubin","μmol/L",,"5.1","20.5"
"01-022","Visit 6","6","2016-09-02","338","Blood","WBC count","x 109 cells/L",2.36138600222766,"4.5","11"
"01-022","End of Study","7","2016-09-26","362","Serum","Albumin","g/L",46.8680933469794,"35","55"
"01-022","End of Study","7","2016-09-26","362","Urine","Albumin/Creatinine","mg/g",27.9556426584857,"0","30"
"01-022","End of Study","7","2016-09-26","362","Serum","Alkaline phosphatase (ALP)","μkat/L",0.53044067248208,"0.5","1.5"
"01-022","End of Study","7","2016-09-26","362","Serum","Aminotransferase, alanine (ALT)","pkat/L",0,"0","0.58"
"01-022","End of Study","7","2016-09-26","362","Serum","Aminotransferase, aspartate (AST)","pkat/L",0.114606909731553,"0","0.58"
"01-022","End of Study","7","2016-09-26","362","Serum","Bicarbonate","mmol/L",,"23","28"
"01-022","End of Study","7","2016-09-26","362","Serum","Blood Urea Nitrogen","mmol/L",5.22279586630603,"2.9","7.1"
"01-022","End of Study","7","2016-09-26","362","Serum","Calcium","mmol/L",2.69767075046133,"2.2","2.6"
"01-022","End of Study","7","2016-09-26","362","Serum","Chloride","mmol/L",95.0496421819387,"98","106"
"01-022","End of Study","7","2016-09-26","362","Serum","Creatinine","μmol/L",59.0232345241912,"61.9","115"
"01-022","End of Study","7","2016-09-26","362","Serum","Cystatin C","mg/L",0.686370852389145,"0.51","0.98"
"01-022","End of Study","7","2016-09-26","362","Serum","Direct Bilirubin","μmol/L",0.193650653377685,"0","5.1"
"01-022","End of Study","7","2016-09-26","362","Serum","eGFR","μmol/L",93.198627185091,"61.9","115"
"01-022","End of Study","7","2016-09-26","362","Serum","eGFRcys","μmol/L",137.268079065891,"61.9","115"
"01-022","End of Study","7","2016-09-26","362","Serum","IgE","mg/L",0.203512504595431,"0.1","0.4"
"01-022","End of Study","7","2016-09-26","362","Serum","Magnesium","mmol/L",0.562656427905257,"0.62","0.99"
"01-022","End of Study","7","2016-09-26","362","Serum","Phosphorus","mmol/L",1.26435845098647,"0.97","1.45"
"01-022","End of Study","7","2016-09-26","362","Blood","Platelet count","x 109/L",393.438450235516,"150","350"
"01-022","End of Study","7","2016-09-26","362","Serum","Potassium","mmol/L",5.10934948731956,"3.5","5"
"01-022","End of Study","7","2016-09-26","362","Blood","RBC count","x 1012 cells/L",6.35895105353262,"4.2","5.9"
"01-022","End of Study","7","2016-09-26","362","Serum","Sodium","mmol/L",143.26299288778,"136","145"
"01-022","End of Study","7","2016-09-26","362","Serum","Total Bilirubin","μmol/L",10.0267004732728,"5.1","20.5"
"01-022","End of Study","7","2016-09-26","362","Blood","WBC count","x 109 cells/L",8.76658673519293,"4.5","11"
"01-023","Screening","0","2015-03-29","1","Serum","Albumin","g/L",60.3596065556874,"35","55"
"01-023","Screening","0","2015-03-29","1","Urine","Albumin/Creatinine","mg/g",,"0","30"
"01-023","Screening","0","2015-03-29","1","Serum","Alkaline phosphatase (ALP)","μkat/L",0.282725527828821,"0.5","1.5"
"01-023","Screening","0","2015-03-29","1","Serum","Aminotransferase, alanine (ALT)","pkat/L",0,"0","0.58"
"01-023","Screening","0","2015-03-29","1","Serum","Aminotransferase, aspartate (AST)","pkat/L",0.13526230127113,"0","0.58"
"01-023","Screening","0","2015-03-29","1","Serum","Bicarbonate","mmol/L",20.9635917407769,"23","28"
"01-023","Screening","0","2015-03-29","1","Serum","Blood Urea Nitrogen","mmol/L",,"2.9","7.1"
"01-023","Screening","0","2015-03-29","1","Serum","Calcium","mmol/L",2.48616931862418,"2.2","2.6"
"01-023","Screening","0","2015-03-29","1","Serum","Chloride","mmol/L",100.936487577688,"98","106"
"01-023","Screening","0","2015-03-29","1","Serum","Creatinine","μmol/L",111.161064563758,"61.9","115"
"01-023","Screening","0","2015-03-29","1","Serum","Cystatin C","mg/L",0.623318606463455,"0.51","0.98"
"01-023","Screening","0","2015-03-29","1","Serum","Direct Bilirubin","μmol/L",0.939294989702908,"0","5.1"
"01-023","Screening","0","2015-03-29","1","Serum","eGFR","μmol/L",76.3114066715575,"61.9","115"
"01-023","Screening","0","2015-03-29","1","Serum","eGFRcys","μmol/L",77.7588111187748,"61.9","115"
"01-023","Screening","0","2015-03-29","1","Serum","IgE","mg/L",0.282997841358694,"0.1","0.4"
"01-023","Screening","0","2015-03-29","1","Serum","Magnesium","mmol/L",0.790998305806218,"0.62","0.99"
"01-023","Screening","0","2015-03-29","1","Serum","Phosphorus","mmol/L",,"0.97","1.45"
"01-023","Screening","0","2015-03-29","1","Blood","Platelet count","x 109/L",234.396871091591,"150","350"
"01-023","Screening","0","2015-03-29","1","Serum","Potassium","mmol/L",3.08659549496866,"3.5","5"
"01-023","Screening","0","2015-03-29","1","Blood","RBC count","x 1012 cells/L",5.1449146559278,"4.2","5.9"
"01-023","Screening","0","2015-03-29","1","Serum","Sodium","mmol/L",139.763013185121,"136","145"
"01-023","Screening","0","2015-03-29","1","Serum","Total Bilirubin","μmol/L",,"5.1","20.5"
"01-023","Screening","0","2015-03-29","1","Blood","WBC count","x 109 cells/L",,"4.5","11"
"01-023","Unscheduled 1.1","1.1","2015-06-06","70","Serum","Albumin","g/L",50.3072308501166,"35","55"
"01-023","Unscheduled 1.1","1.1","2015-06-06","70","Urine","Albumin/Creatinine","mg/g",4.5770415801137,"0","30"
"01-023","Unscheduled 1.1","1.1","2015-06-06","70","Serum","Alkaline phosphatase (ALP)","μkat/L",0.636423986031643,"0.5","1.5"
"01-023","Unscheduled 1.1","1.1","2015-06-06","70","Serum","Aminotransferase, alanine (ALT)","pkat/L",0.789759980191804,"0","0.58"
"01-023","Unscheduled 1.1","1.1","2015-06-06","70","Serum","Aminotransferase, aspartate (AST)","pkat/L",0,"0","0.58"
"01-023","Unscheduled 1.1","1.1","2015-06-06","70","Serum","Bicarbonate","mmol/L",25.2704327906135,"23","28"
"01-023","Unscheduled 1.1","1.1","2015-06-06","70","Serum","Blood Urea Nitrogen","mmol/L",5.73344610553109,"2.9","7.1"
"01-023","Unscheduled 1.1","1.1","2015-06-06","70","Serum","Calcium","mmol/L",2.27672657364299,"2.2","2.6"
"01-023","Unscheduled 1.1","1.1","2015-06-06","70","Serum","Chloride","mmol/L",103.618696878631,"98","106"
"01-023","Unscheduled 1.1","1.1","2015-06-06","70","Serum","Creatinine","μmol/L",,"61.9","115"
"01-023","Unscheduled 1.1","1.1","2015-06-06","70","Serum","Cystatin C","mg/L",1.12900235896935,"0.51","0.98"
"01-023","Unscheduled 1.1","1.1","2015-06-06","70","Serum","Direct Bilirubin","μmol/L",0,"0","5.1"
"01-023","Unscheduled 1.1","1.1","2015-06-06","70","Serum","eGFR","μmol/L",128.308115432963,"61.9","115"
"01-023","Unscheduled 1.1","1.1","2015-06-06","70","Serum","eGFRcys","μmol/L",91.1340512814415,"61.9","115"
"01-023","Unscheduled 1.1","1.1","2015-06-06","70","Serum","IgE","mg/L",0.448204290526417,"0.1","0.4"
"01-023","Unscheduled 1.1","1.1","2015-06-06","70","Serum","Magnesium","mmol/L",0.643799581313084,"0.62","0.99"
"01-023","Unscheduled 1.1","1.1","2015-06-06","70","Serum","Phosphorus","mmol/L",1.38450180220033,"0.97","1.45"
"01-023","Unscheduled 1.1","1.1","2015-06-06","70","Blood","Platelet count","x 109/L",328.030415381841,"150","350"
"01-023","Unscheduled 1.1","1.1","2015-06-06","70","Serum","Potassium","mmol/L",3.94809750381812,"3.5","5"
"01-023","Unscheduled 1.1","1.1","2015-06-06","70","Blood","RBC count","x 1012 cells/L",3.83440736077423,"4.2","5.9"
"01-023","Unscheduled 1.1","1.1","2015-06-06","70","Serum","Sodium","mmol/L",148.292367717689,"136","145"
"01-023","Unscheduled 1.1","1.1","2015-06-06","70","Serum","Total Bilirubin","μmol/L",13.1345501123876,"5.1","20.5"
"01-023","Unscheduled 1.1","1.1","2015-06-06","70","Blood","WBC count","x 109 cells/L",11.3324954172311,"4.5","11"
"01-024","Screening","0","2015-04-23","1","Serum","Albumin","g/L",50.6874943962358,"35","55"
"01-024","Screening","0","2015-04-23","1","Urine","Albumin/Creatinine","mg/g",,"0","30"
"01-024","Screening","0","2015-04-23","1","Serum","Alkaline phosphatase (ALP)","μkat/L",0.974723420527193,"0.5","1.5"
"01-024","Screening","0","2015-04-23","1","Serum","Aminotransferase, alanine (ALT)","pkat/L",0.13076740948561,"0","0.58"
"01-024","Screening","0","2015-04-23","1","Serum","Aminotransferase, aspartate (AST)","pkat/L",0.294731896741353,"0","0.58"
"01-024","Screening","0","2015-04-23","1","Serum","Bicarbonate","mmol/L",24.5431559435313,"23","28"
"01-024","Screening","0","2015-04-23","1","Serum","Blood Urea Nitrogen","mmol/L",,"2.9","7.1"
"01-024","Screening","0","2015-04-23","1","Serum","Calcium","mmol/L",2.53846350598667,"2.2","2.6"
"01-024","Screening","0","2015-04-23","1","Serum","Chloride","mmol/L",102.761537899946,"98","106"
"01-024","Screening","0","2015-04-23","1","Serum","Creatinine","μmol/L",82.7101119136847,"61.9","115"
"01-024","Screening","0","2015-04-23","1","Serum","Cystatin C","mg/L",0.951653865806688,"0.51","0.98"
"01-024","Screening","0","2015-04-23","1","Serum","Direct Bilirubin","μmol/L",4.14865999513224,"0","5.1"
"01-024","Screening","0","2015-04-23","1","Serum","eGFR","μmol/L",76.8345812592329,"61.9","115"
"01-024","Screening","0","2015-04-23","1","Serum","eGFRcys","μmol/L",53.0175412804489,"61.9","115"
"01-024","Screening","0","2015-04-23","1","Serum","IgE","mg/L",0.105122847267806,"0.1","0.4"
"01-024","Screening","0","2015-04-23","1","Serum","Magnesium","mmol/L",0.889630001696635,"0.62","0.99"
"01-024","Screening","0","2015-04-23","1","Serum","Phosphorus","mmol/L",,"0.97","1.45"
"01-024","Screening","0","2015-04-23","1","Blood","Platelet count","x 109/L",488.725398583444,"150","350"
"01-024","Screening","0","2015-04-23","1","Serum","Potassium","mmol/L",5.22850317876023,"3.5","5"
"01-024","Screening","0","2015-04-23","1","Blood","RBC count","x 1012 cells/L",4.79964753983783,"4.2","5.9"
"01-024","Screening","0","2015-04-23","1","Serum","Sodium","mmol/L",142.17887096787,"136","145"
"01-024","Screening","0","2015-04-23","1","Serum","Total Bilirubin","μmol/L",,"5.1","20.5"
"01-024","Screening","0","2015-04-23","1","Blood","WBC count","x 109 cells/L",,"4.5","11"
"01-024","Visit 1","1","2015-06-10","49","Serum","Albumin","g/L",49.7589423760167,"35","55"
"01-024","Visit 1","1","2015-06-10","49","Urine","Albumin/Creatinine","mg/g",7.89193163435113,"0","30"
"01-024","Visit 1","1","2015-06-10","49","Serum","Alkaline phosphatase (ALP)","μkat/L",1.53396067395095,"0.5","1.5"
"01-024","Visit 1","1","2015-06-10","49","Serum","Aminotransferase, alanine (ALT)","pkat/L",0.149845069733532,"0","0.58"
"01-024","Visit 1","1","2015-06-10","49","Serum","Aminotransferase, aspartate (AST)","pkat/L",0,"0","0.58"
"01-024","Visit 1","1","2015-06-10","49","Serum","Bicarbonate","mmol/L",24.1745843794375,"23","28"
"01-024","Visit 1","1","2015-06-10","49","Serum","Blood Urea Nitrogen","mmol/L",5.1930143405319,"2.9","7.1"
"01-024","Visit 1","1","2015-06-10","49","Serum","Calcium","mmol/L",2.3141453583378,"2.2","2.6"
"01-024","Visit 1","1","2015-06-10","49","Serum","Chloride","mmol/L",,"98","106"
"01-024","Visit 1","1","2015-06-10","49","Serum","Creatinine","μmol/L",94.0632616827385,"61.9","115"
"01-024","Visit 1","1","2015-06-10","49","Serum","Cystatin C","mg/L",0.736871594053763,"0.51","0.98"
"01-024","Visit 1","1","2015-06-10","49","Serum","Direct Bilirubin","μmol/L",0.254791594395118,"0","5.1"
"01-024","Visit 1","1","2015-06-10","49","Serum","eGFR","μmol/L",91.5783703667239,"61.9","115"
"01-024","Visit 1","1","2015-06-10","49","Serum","eGFRcys","μmol/L",65.9325427597089,"61.9","115"
"01-024","Visit 1","1","2015-06-10","49","Serum","IgE","mg/L",0.456163535304987,"0.1","0.4"
"01-024","Visit 1","1","2015-06-10","49","Serum","Magnesium","mmol/L",0.893089253082451,"0.62","0.99"
"01-024","Visit 1","1","2015-06-10","49","Serum","Phosphorus","mmol/L",1.39355458844432,"0.97","1.45"
"01-024","Visit 1","1","2015-06-10","49","Blood","Platelet count","x 109/L",280.181974586128,"150","350"
"01-024","Visit 1","1","2015-06-10","49","Serum","Potassium","mmol/L",5.31047105207127,"3.5","5"
"01-024","Visit 1","1","2015-06-10","49","Blood","RBC count","x 1012 cells/L",4.5310972780307,"4.2","5.9"
"01-024","Visit 1","1","2015-06-10","49","Serum","Sodium","mmol/L",137.839466799623,"136","145"
"01-024","Visit 1","1","2015-06-10","49","Serum","Total Bilirubin","μmol/L",10.5033023267259,"5.1","20.5"
"01-024","Visit 1","1","2015-06-10","49","Blood","WBC count","x 109 cells/L",8.59434597499777,"4.5","11"
"01-024","Visit 2","2","2015-08-08","108","Serum","Albumin","g/L",50.7232783403084,"35","55"
"01-024","Visit 2","2","2015-08-08","108","Urine","Albumin/Creatinine","mg/g",7.26744455090151,"0","30"
"01-024","Visit 2","2","2015-08-08","108","Serum","Alkaline phosphatase (ALP)","μkat/L",1.34345363267211,"0.5","1.5"
"01-024","Visit 2","2","2015-08-08","108","Serum","Aminotransferase, alanine (ALT)","pkat/L",0.13488388124975,"0","0.58"
"01-024","Visit 2","2","2015-08-08","108","Serum","Aminotransferase, aspartate (AST)","pkat/L",,"0","0.58"
"01-024","Visit 2","2","2015-08-08","108","Serum","Bicarbonate","mmol/L",20.8240387838624,"23","28"
"01-024","Visit 2","2","2015-08-08","108","Serum","Blood Urea Nitrogen","mmol/L",,"2.9","7.1"
"01-024","Visit 2","2","2015-08-08","108","Serum","Calcium","mmol/L",,"2.2","2.6"
"01-024","Visit 2","2","2015-08-08","108","Serum","Chloride","mmol/L",98.352416181397,"98","106"
"01-024","Visit 2","2","2015-08-08","108","Serum","Creatinine","μmol/L",79.2913765731174,"61.9","115"
"01-024","Visit 2","2","2015-08-08","108","Serum","Cystatin C","mg/L",0.907504391092407,"0.51","0.98"
"01-024","Visit 2","2","2015-08-08","108","Serum","Direct Bilirubin","μmol/L",0.864098247778983,"0","5.1"
"01-024","Visit 2","2","2015-08-08","108","Serum","eGFR","μmol/L",102.775157046988,"61.9","115"
"01-024","Visit 2","2","2015-08-08","108","Serum","eGFRcys","μmol/L",136.446830499552,"61.9","115"
"01-024","Visit 2","2","2015-08-08","108","Serum","IgE","mg/L",0.12239270423738,"0.1","0.4"
"01-024","Visit 2","2","2015-08-08","108","Serum","Magnesium","mmol/L",,"0.62","0.99"
"01-024","Visit 2","2","2015-08-08","108","Serum","Phosphorus","mmol/L",1.02772503596502,"0.97","1.45"
"01-024","Visit 2","2","2015-08-08","108","Blood","Platelet count","x 109/L",281.132970392698,"150","350"
"01-024","Visit 2","2","2015-08-08","108","Serum","Potassium","mmol/L",,"3.5","5"
"01-024","Visit 2","2","2015-08-08","108","Blood","RBC count","x 1012 cells/L",4.03227935700247,"4.2","5.9"
"01-024","Visit 2","2","2015-08-08","108","Serum","Sodium","mmol/L",141.517561381354,"136","145"
"01-024","Visit 2","2","2015-08-08","108","Serum","Total Bilirubin","μmol/L",16.223343182658,"5.1","20.5"
"01-024","Visit 2","2","2015-08-08","108","Blood","WBC count","x 109 cells/L",6.15242118539336,"4.5","11"
"01-024","Visit 3","3","2015-10-09","170","Serum","Albumin","g/L",38.0128111291679,"35","55"
"01-024","Visit 3","3","2015-10-09","170","Urine","Albumin/Creatinine","mg/g",6.76577353679148,"0","30"
"01-024","Visit 3","3","2015-10-09","170","Serum","Alkaline phosphatase (ALP)","μkat/L",,"0.5","1.5"
"01-024","Visit 3","3","2015-10-09","170","Serum","Aminotransferase, alanine (ALT)","pkat/L",0.0713945871461351,"0","0.58"
"01-024","Visit 3","3","2015-10-09","170","Serum","Aminotransferase, aspartate (AST)","pkat/L",0,"0","0.58"
"01-024","Visit 3","3","2015-10-09","170","Serum","Bicarbonate","mmol/L",24.0289000506306,"23","28"
"01-024","Visit 3","3","2015-10-09","170","Serum","Blood Urea Nitrogen","mmol/L",3.18086071883261,"2.9","7.1"
"01-024","Visit 3","3","2015-10-09","170","Serum","Calcium","mmol/L",2.33456824309273,"2.2","2.6"
"01-024","Visit 3","3","2015-10-09","170","Serum","Chloride","mmol/L",103.582191032097,"98","106"
"01-024","Visit 3","3","2015-10-09","170","Serum","Creatinine","μmol/L",68.0770870708304,"61.9","115"
"01-024","Visit 3","3","2015-10-09","170","Serum","Cystatin C","mg/L",1.27930907353884,"0.51","0.98"
"01-024","Visit 3","3","2015-10-09","170","Serum","Direct Bilirubin","μmol/L",5.91749142259417,"0","5.1"
"01-024","Visit 3","3","2015-10-09","170","Serum","eGFR","μmol/L",95.3379612236602,"61.9","115"
"01-024","Visit 3","3","2015-10-09","170","Serum","eGFRcys","μmol/L",56.1650715470727,"61.9","115"
"01-024","Visit 3","3","2015-10-09","170","Serum","IgE","mg/L",0.387321458843769,"0.1","0.4"
"01-024","Visit 3","3","2015-10-09","170","Serum","Magnesium","mmol/L",0.353143813793645,"0.62","0.99"
"01-024","Visit 3","3","2015-10-09","170","Serum","Phosphorus","mmol/L",0.976977586357693,"0.97","1.45"
"01-024","Visit 3","3","2015-10-09","170","Blood","Platelet count","x 109/L",266.314854313657,"150","350"
"01-024","Visit 3","3","2015-10-09","170","Serum","Potassium","mmol/L",4.40303385842057,"3.5","5"
"01-024","Visit 3","3","2015-10-09","170","Blood","RBC count","x 1012 cells/L",,"4.2","5.9"
"01-024","Visit 3","3","2015-10-09","170","Serum","Sodium","mmol/L",143.553136854177,"136","145"
"01-024","Visit 3","3","2015-10-09","170","Serum","Total Bilirubin","μmol/L",14.5933641934948,"5.1","20.5"
"01-024","Visit 3","3","2015-10-09","170","Blood","WBC count","x 109 cells/L",,"4.5","11"
"01-025","Screening","0","2015-06-22","1","Serum","Albumin","g/L",44.1470005229103,"35","55"
"01-025","Screening","0","2015-06-22","1","Urine","Albumin/Creatinine","mg/g",,"0","30"
"01-025","Screening","0","2015-06-22","1","Serum","Alkaline phosphatase (ALP)","μkat/L",1.379878518191,"0.5","1.5"
"01-025","Screening","0","2015-06-22","1","Serum","Aminotransferase, alanine (ALT)","pkat/L",0.396758474328413,"0","0.58"
"01-025","Screening","0","2015-06-22","1","Serum","Aminotransferase, aspartate (AST)","pkat/L",,"0","0.58"
"01-025","Screening","0","2015-06-22","1","Serum","Bicarbonate","mmol/L",19.9910758895626,"23","28"
"01-025","Screening","0","2015-06-22","1","Serum","Blood Urea Nitrogen","mmol/L",,"2.9","7.1"
"01-025","Screening","0","2015-06-22","1","Serum","Calcium","mmol/L",2.04397409044715,"2.2","2.6"
"01-025","Screening","0","2015-06-22","1","Serum","Chloride","mmol/L",103.948960471667,"98","106"
"01-025","Screening","0","2015-06-22","1","Serum","Creatinine","μmol/L",112.464480524827,"61.9","115"
"01-025","Screening","0","2015-06-22","1","Serum","Cystatin C","mg/L",0.454262718411535,"0.51","0.98"
"01-025","Screening","0","2015-06-22","1","Serum","Direct Bilirubin","μmol/L",1.48710867987944,"0","5.1"
"01-025","Screening","0","2015-06-22","1","Serum","eGFR","μmol/L",98.5471669117707,"61.9","115"
"01-025","Screening","0","2015-06-22","1","Serum","eGFRcys","μmol/L",105.533229389956,"61.9","115"
"01-025","Screening","0","2015-06-22","1","Serum","IgE","mg/L",0.246254626110345,"0.1","0.4"
"01-025","Screening","0","2015-06-22","1","Serum","Magnesium","mmol/L",1.1859160083789,"0.62","0.99"
"01-025","Screening","0","2015-06-22","1","Serum","Phosphorus","mmol/L",,"0.97","1.45"
"01-025","Screening","0","2015-06-22","1","Blood","Platelet count","x 109/L",313.237754394927,"150","350"
"01-025","Screening","0","2015-06-22","1","Serum","Potassium","mmol/L",4.04064683997788,"3.5","5"
"01-025","Screening","0","2015-06-22","1","Blood","RBC count","x 1012 cells/L",5.53004549105588,"4.2","5.9"
"01-025","Screening","0","2015-06-22","1","Serum","Sodium","mmol/L",143.294961725008,"136","145"
"01-025","Screening","0","2015-06-22","1","Serum","Total Bilirubin","μmol/L",,"5.1","20.5"
"01-025","Screening","0","2015-06-22","1","Blood","WBC count","x 109 cells/L",,"4.5","11"
"01-025","Visit 1","1","2015-08-09","49","Serum","Albumin","g/L",40.4073975755313,"35","55"
"01-025","Visit 1","1","2015-08-09","49","Urine","Albumin/Creatinine","mg/g",17.831586871377,"0","30"
"01-025","Visit 1","1","2015-08-09","49","Serum","Alkaline phosphatase (ALP)","μkat/L",1.08818352175928,"0.5","1.5"
"01-025","Visit 1","1","2015-08-09","49","Serum","Aminotransferase, alanine (ALT)","pkat/L",0.165088127046226,"0","0.58"
"01-025","Visit 1","1","2015-08-09","49","Serum","Aminotransferase, aspartate (AST)","pkat/L",0.168523618069813,"0","0.58"
"01-025","Visit 1","1","2015-08-09","49","Serum","Bicarbonate","mmol/L",25.4181056397954,"23","28"
"01-025","Visit 1","1","2015-08-09","49","Serum","Blood Urea Nitrogen","mmol/L",4.55250693641566,"2.9","7.1"
"01-025","Visit 1","1","2015-08-09","49","Serum","Calcium","mmol/L",2.1832112384933,"2.2","2.6"
"01-025","Visit 1","1","2015-08-09","49","Serum","Chloride","mmol/L",96.7219276246488,"98","106"
"01-025","Visit 1","1","2015-08-09","49","Serum","Creatinine","μmol/L",103.506440688234,"61.9","115"
"01-025","Visit 1","1","2015-08-09","49","Serum","Cystatin C","mg/L",1.06574408586004,"0.51","0.98"
"01-025","Visit 1","1","2015-08-09","49","Serum","Direct Bilirubin","μmol/L",3.59491361856054,"0","5.1"
"01-025","Visit 1","1","2015-08-09","49","Serum","eGFR","μmol/L",67.2585807895035,"61.9","115"
"01-025","Visit 1","1","2015-08-09","49","Serum","eGFRcys","μmol/L",74.0760678773736,"61.9","115"
"01-025","Visit 1","1","2015-08-09","49","Serum","IgE","mg/L",0.125964958461074,"0.1","0.4"
"01-025","Visit 1","1","2015-08-09","49","Serum","Magnesium","mmol/L",0.809923121524943,"0.62","0.99"
"01-025","Visit 1","1","2015-08-09","49","Serum","Phosphorus","mmol/L",1.37853031929385,"0.97","1.45"
"01-025","Visit 1","1","2015-08-09","49","Blood","Platelet count","x 109/L",356.153946033206,"150","350"
"01-025","Visit 1","1","2015-08-09","49","Serum","Potassium","mmol/L",4.15090829128746,"3.5","5"
"01-025","Visit 1","1","2015-08-09","49","Blood","RBC count","x 1012 cells/L",6.16529887324025,"4.2","5.9"
"01-025","Visit 1","1","2015-08-09","49","Serum","Sodium","mmol/L",143.076580896404,"136","145"
"01-025","Visit 1","1","2015-08-09","49","Serum","Total Bilirubin","μmol/L",20.4403213762143,"5.1","20.5"
"01-025","Visit 1","1","2015-08-09","49","Blood","WBC count","x 109 cells/L",9.97268773856345,"4.5","11"
"01-026","Screening","0","2015-02-19","1","Serum","Albumin","g/L",38.8475342970257,"35","55"
"01-026","Screening","0","2015-02-19","1","Urine","Albumin/Creatinine","mg/g",,"0","30"
"01-026","Screening","0","2015-02-19","1","Serum","Alkaline phosphatase (ALP)","μkat/L",1.04496206534751,"0.5","1.5"
"01-026","Screening","0","2015-02-19","1","Serum","Aminotransferase, alanine (ALT)","pkat/L",0.474587788525559,"0","0.58"
"01-026","Screening","0","2015-02-19","1","Serum","Aminotransferase, aspartate (AST)","pkat/L",0,"0","0.58"
"01-026","Screening","0","2015-02-19","1","Serum","Bicarbonate","mmol/L",24.6638834853149,"23","28"
"01-026","Screening","0","2015-02-19","1","Serum","Blood Urea Nitrogen","mmol/L",,"2.9","7.1"
"01-026","Screening","0","2015-02-19","1","Serum","Calcium","mmol/L",2.2350136537114,"2.2","2.6"
"01-026","Screening","0","2015-02-19","1","Serum","Chloride","mmol/L",99.950035475192,"98","106"
"01-026","Screening","0","2015-02-19","1","Serum","Creatinine","μmol/L",95.4162978329342,"61.9","115"
"01-026","Screening","0","2015-02-19","1","Serum","Cystatin C","mg/L",0.931234250155983,"0.51","0.98"
"01-026","Screening","0","2015-02-19","1","Serum","Direct Bilirubin","μmol/L",4.88380228236262,"0","5.1"
"01-026","Screening","0","2015-02-19","1","Serum","eGFR","μmol/L",97.9296268208926,"61.9","115"
"01-026","Screening","0","2015-02-19","1","Serum","eGFRcys","μmol/L",98.1087898207547,"61.9","115"
"01-026","Screening","0","2015-02-19","1","Serum","IgE","mg/L",0.136247122037622,"0.1","0.4"
"01-026","Screening","0","2015-02-19","1","Serum","Magnesium","mmol/L",0.673561077822157,"0.62","0.99"
"01-026","Screening","0","2015-02-19","1","Serum","Phosphorus","mmol/L",,"0.97","1.45"
"01-026","Screening","0","2015-02-19","1","Blood","Platelet count","x 109/L",301.927576371275,"150","350"
"01-026","Screening","0","2015-02-19","1","Serum","Potassium","mmol/L",3.83220833781085,"3.5","5"
"01-026","Screening","0","2015-02-19","1","Blood","RBC count","x 1012 cells/L",4.76774938888309,"4.2","5.9"
"01-026","Screening","0","2015-02-19","1","Serum","Sodium","mmol/L",145.081467670563,"136","145"
"01-026","Screening","0","2015-02-19","1","Serum","Total Bilirubin","μmol/L",,"5.1","20.5"
"01-026","Screening","0","2015-02-19","1","Blood","WBC count","x 109 cells/L",,"4.5","11"
"01-026","Visit 1","1","2015-04-19","60","Serum","Albumin","g/L",50.5878837952181,"35","55"
"01-026","Visit 1","1","2015-04-19","60","Urine","Albumin/Creatinine","mg/g",0,"0","30"
"01-026","Visit 1","1","2015-04-19","60","Serum","Alkaline phosphatase (ALP)","μkat/L",0.969183497605079,"0.5","1.5"
"01-026","Visit 1","1","2015-04-19","60","Serum","Aminotransferase, alanine (ALT)","pkat/L",0,"0","0.58"
"01-026","Visit 1","1","2015-04-19","60","Serum","Aminotransferase, aspartate (AST)","pkat/L",0.666305035940544,"0","0.58"
"01-026","Visit 1","1","2015-04-19","60","Serum","Bicarbonate","mmol/L",20.0182799045559,"23","28"
"01-026","Visit 1","1","2015-04-19","60","Serum","Blood Urea Nitrogen","mmol/L",6.44085763115379,"2.9","7.1"
"01-026","Visit 1","1","2015-04-19","60","Serum","Calcium","mmol/L",2.48228987452587,"2.2","2.6"
"01-026","Visit 1","1","2015-04-19","60","Serum","Chloride","mmol/L",100.411412132744,"98","106"
"01-026","Visit 1","1","2015-04-19","60","Serum","Creatinine","μmol/L",106.551400374104,"61.9","115"
"01-026","Visit 1","1","2015-04-19","60","Serum","Cystatin C","mg/L",0.513210370128399,"0.51","0.98"
"01-026","Visit 1","1","2015-04-19","60","Serum","Direct Bilirubin","μmol/L",1.30839994030963,"0","5.1"
"01-026","Visit 1","1","2015-04-19","60","Serum","eGFR","μmol/L",78.7782751160186,"61.9","115"
"01-026","Visit 1","1","2015-04-19","60","Serum","eGFRcys","μmol/L",85.2291088754142,"61.9","115"
"01-026","Visit 1","1","2015-04-19","60","Serum","IgE","mg/L",0.00403953820709593,"0.1","0.4"
"01-026","Visit 1","1","2015-04-19","60","Serum","Magnesium","mmol/L",0.930179456136601,"0.62","0.99"
"01-026","Visit 1","1","2015-04-19","60","Serum","Phosphorus","mmol/L",,"0.97","1.45"
"01-026","Visit 1","1","2015-04-19","60","Blood","Platelet count","x 109/L",341.350202356995,"150","350"
"01-026","Visit 1","1","2015-04-19","60","Serum","Potassium","mmol/L",3.58644328171,"3.5","5"
"01-026","Visit 1","1","2015-04-19","60","Blood","RBC count","x 1012 cells/L",5.356451284919,"4.2","5.9"
"01-026","Visit 1","1","2015-04-19","60","Serum","Sodium","mmol/L",137.783428398645,"136","145"
"01-026","Visit 1","1","2015-04-19","60","Serum","Total Bilirubin","μmol/L",13.4438851233705,"5.1","20.5"
"01-026","Visit 1","1","2015-04-19","60","Blood","WBC count","x 109 cells/L",10.7432296055158,"4.5","11"
"01-026","Visit 2","2","2015-06-12","114","Serum","Albumin","g/L",46.9812563969923,"35","55"
"01-026","Visit 2","2","2015-06-12","114","Urine","Albumin/Creatinine","mg/g",1.46846934382195,"0","30"
"01-026","Visit 2","2","2015-06-12","114","Serum","Alkaline phosphatase (ALP)","μkat/L",1.04453866507018,"0.5","1.5"
"01-026","Visit 2","2","2015-06-12","114","Serum","Aminotransferase, alanine (ALT)","pkat/L",0.425984315132093,"0","0.58"
"01-026","Visit 2","2","2015-06-12","114","Serum","Aminotransferase, aspartate (AST)","pkat/L",,"0","0.58"
"01-026","Visit 2","2","2015-06-12","114","Serum","Bicarbonate","mmol/L",21.5667496331622,"23","28"
"01-026","Visit 2","2","2015-06-12","114","Serum","Blood Urea Nitrogen","mmol/L",,"2.9","7.1"
"01-026","Visit 2","2","2015-06-12","114","Serum","Calcium","mmol/L",,"2.2","2.6"
"01-026","Visit 2","2","2015-06-12","114","Serum","Chloride","mmol/L",104.878607717797,"98","106"
"01-026","Visit 2","2","2015-06-12","114","Serum","Creatinine","μmol/L",89.2741502184121,"61.9","115"
"01-026","Visit 2","2","2015-06-12","114","Serum","Cystatin C","mg/L",0.822721529999382,"0.51","0.98"
"01-026","Visit 2","2","2015-06-12","114","Serum","Direct Bilirubin","μmol/L",0,"0","5.1"
"01-026","Visit 2","2","2015-06-12","114","Serum","eGFR","μmol/L",100.2112579595,"61.9","115"
"01-026","Visit 2","2","2015-06-12","114","Serum","eGFRcys","μmol/L",91.2791040446491,"61.9","115"
"01-026","Visit 2","2","2015-06-12","114","Serum","IgE","mg/L",0.553044577947125,"0.1","0.4"
"01-026","Visit 2","2","2015-06-12","114","Serum","Magnesium","mmol/L",,"0.62","0.99"
"01-026","Visit 2","2","2015-06-12","114","Serum","Phosphorus","mmol/L",1.15048638870166,"0.97","1.45"
"01-026","Visit 2","2","2015-06-12","114","Blood","Platelet count","x 109/L",175.59247940144,"150","350"
"01-026","Visit 2","2","2015-06-12","114","Serum","Potassium","mmol/L",,"3.5","5"
"01-026","Visit 2","2","2015-06-12","114","Blood","RBC count","x 1012 cells/L",,"4.2","5.9"
"01-026","Visit 2","2","2015-06-12","114","Serum","Sodium","mmol/L",145.636068568512,"136","145"
"01-026","Visit 2","2","2015-06-12","114","Serum","Total Bilirubin","μmol/L",1.18240116198836,"5.1","20.5"
"01-026","Visit 2","2","2015-06-12","114","Blood","WBC count","x 109 cells/L",2.70235091328824,"4.5","11"
"01-026","Visit 3","3","2015-08-02","165","Serum","Albumin","g/L",35.035591100435,"35","55"
"01-026","Visit 3","3","2015-08-02","165","Urine","Albumin/Creatinine","mg/g",26.1369979419751,"0","30"
"01-026","Visit 3","3","2015-08-02","165","Serum","Alkaline phosphatase (ALP)","μkat/L",,"0.5","1.5"
"01-026","Visit 3","3","2015-08-02","165","Serum","Aminotransferase, alanine (ALT)","pkat/L",0.478649219755727,"0","0.58"
"01-026","Visit 3","3","2015-08-02","165","Serum","Aminotransferase, aspartate (AST)","pkat/L",0.252603862994334,"0","0.58"
"01-026","Visit 3","3","2015-08-02","165","Serum","Bicarbonate","mmol/L",25.3208215429931,"23","28"
"01-026","Visit 3","3","2015-08-02","165","Serum","Blood Urea Nitrogen","mmol/L",4.1316948141136,"2.9","7.1"
"01-026","Visit 3","3","2015-08-02","165","Serum","Calcium","mmol/L",2.50087316664455,"2.2","2.6"
"01-026","Visit 3","3","2015-08-02","165","Serum","Chloride","mmol/L",100.759649607604,"98","106"
"01-026","Visit 3","3","2015-08-02","165","Serum","Creatinine","μmol/L",58.1181058119637,"61.9","115"
"01-026","Visit 3","3","2015-08-02","165","Serum","Cystatin C","mg/L",0.418100868121975,"0.51","0.98"
"01-026","Visit 3","3","2015-08-02","165","Serum","Direct Bilirubin","μmol/L",6.19297683176741,"0","5.1"
"01-026","Visit 3","3","2015-08-02","165","Serum","eGFR","μmol/L",132.383741033133,"61.9","115"
"01-026","Visit 3","3","2015-08-02","165","Serum","eGFRcys","μmol/L",94.3175927775865,"61.9","115"
"01-026","Visit 3","3","2015-08-02","165","Serum","IgE","mg/L",0.322112903534465,"0.1","0.4"
"01-026","Visit 3","3","2015-08-02","165","Serum","Magnesium","mmol/L",1.16094263774838,"0.62","0.99"
"01-026","Visit 3","3","2015-08-02","165","Serum","Phosphorus","mmol/L",1.33050621745694,"0.97","1.45"
"01-026","Visit 3","3","2015-08-02","165","Blood","Platelet count","x 109/L",302.937546946691,"150","350"
"01-026","Visit 3","3","2015-08-02","165","Serum","Potassium","mmol/L",4.57182580050372,"3.5","5"
"01-026","Visit 3","3","2015-08-02","165","Blood","RBC count","x 1012 cells/L",,"4.2","5.9"
"01-026","Visit 3","3","2015-08-02","165","Serum","Sodium","mmol/L",140.190757184782,"136","145"
"01-026","Visit 3","3","2015-08-02","165","Serum","Total Bilirubin","μmol/L",8.19569195359377,"5.1","20.5"
"01-026","Visit 3","3","2015-08-02","165","Blood","WBC count","x 109 cells/L",,"4.5","11"
"01-026","Visit 4","4","2015-10-05","229","Serum","Albumin","g/L",,"35","55"
"01-026","Visit 4","4","2015-10-05","229","Urine","Albumin/Creatinine","mg/g",21.1244662658994,"0","30"
"01-026","Visit 4","4","2015-10-05","229","Serum","Alkaline phosphatase (ALP)","μkat/L",2.04600744899608,"0.5","1.5"
"01-026","Visit 4","4","2015-10-05","229","Serum","Aminotransferase, alanine (ALT)","pkat/L",0.150309643797572,"0","0.58"
"01-026","Visit 4","4","2015-10-05","229","Serum","Aminotransferase, aspartate (AST)","pkat/L",0,"0","0.58"
"01-026","Visit 4","4","2015-10-05","229","Serum","Bicarbonate","mmol/L",22.9937895189398,"23","28"
"01-026","Visit 4","4","2015-10-05","229","Serum","Blood Urea Nitrogen","mmol/L",9.24461846131111,"2.9","7.1"
"01-026","Visit 4","4","2015-10-05","229","Serum","Calcium","mmol/L",,"2.2","2.6"
"01-026","Visit 4","4","2015-10-05","229","Serum","Chloride","mmol/L",101.285445237186,"98","106"
"01-026","Visit 4","4","2015-10-05","229","Serum","Creatinine","μmol/L",121.038259486439,"61.9","115"
"01-026","Visit 4","4","2015-10-05","229","Serum","Cystatin C","mg/L",0.674279888485621,"0.51","0.98"
"01-026","Visit 4","4","2015-10-05","229","Serum","Direct Bilirubin","μmol/L",4.14263031303477,"0","5.1"
"01-026","Visit 4","4","2015-10-05","229","Serum","eGFR","μmol/L",,"61.9","115"
"01-026","Visit 4","4","2015-10-05","229","Serum","eGFRcys","μmol/L",65.9468581487119,"61.9","115"
"01-026","Visit 4","4","2015-10-05","229","Serum","IgE","mg/L",0.284033183161129,"0.1","0.4"
"01-026","Visit 4","4","2015-10-05","229","Serum","Magnesium","mmol/L",0.545491334841787,"0.62","0.99"
"01-026","Visit 4","4","2015-10-05","229","Serum","Phosphorus","mmol/L",1.25802776072987,"0.97","1.45"
"01-026","Visit 4","4","2015-10-05","229","Blood","Platelet count","x 109/L",229.355038042319,"150","350"
"01-026","Visit 4","4","2015-10-05","229","Serum","Potassium","mmol/L",4.54054794156782,"3.5","5"
"01-026","Visit 4","4","2015-10-05","229","Blood","RBC count","x 1012 cells/L",3.91764579433667,"4.2","5.9"
"01-026","Visit 4","4","2015-10-05","229","Serum","Sodium","mmol/L",133.382874589241,"136","145"
"01-026","Visit 4","4","2015-10-05","229","Serum","Total Bilirubin","μmol/L",12.2096473662447,"5.1","20.5"
"01-026","Visit 4","4","2015-10-05","229","Blood","WBC count","x 109 cells/L",2.21206657559908,"4.5","11"
"01-026","Unscheduled 4.1","4.1","2015-10-13","237","Serum","Albumin","g/L",48.5049194193225,"35","55"
"01-026","Unscheduled 4.1","4.1","2015-10-13","237","Urine","Albumin/Creatinine","mg/g",1.24603221031642,"0","30"
"01-026","Unscheduled 4.1","4.1","2015-10-13","237","Serum","Alkaline phosphatase (ALP)","μkat/L",0.3542870705618,"0.5","1.5"
"01-026","Unscheduled 4.1","4.1","2015-10-13","237","Serum","Aminotransferase, alanine (ALT)","pkat/L",0.209256122911185,"0","0.58"
"01-026","Unscheduled 4.1","4.1","2015-10-13","237","Serum","Aminotransferase, aspartate (AST)","pkat/L",0.250072647092467,"0","0.58"
"01-026","Unscheduled 4.1","4.1","2015-10-13","237","Serum","Bicarbonate","mmol/L",25.6090852596635,"23","28"
"01-026","Unscheduled 4.1","4.1","2015-10-13","237","Serum","Blood Urea Nitrogen","mmol/L",3.83013186967881,"2.9","7.1"
"01-026","Unscheduled 4.1","4.1","2015-10-13","237","Serum","Calcium","mmol/L",2.29475953029391,"2.2","2.6"
"01-026","Unscheduled 4.1","4.1","2015-10-13","237","Serum","Chloride","mmol/L",109.404664077039,"98","106"
"01-026","Unscheduled 4.1","4.1","2015-10-13","237","Serum","Creatinine","μmol/L",88.6633201977482,"61.9","115"
"01-026","Unscheduled 4.1","4.1","2015-10-13","237","Serum","Cystatin C","mg/L",0.817626565172925,"0.51","0.98"
"01-026","Unscheduled 4.1","4.1","2015-10-13","237","Serum","Direct Bilirubin","μmol/L",4.8687579353183,"0","5.1"
"01-026","Unscheduled 4.1","4.1","2015-10-13","237","Serum","eGFR","μmol/L",100.993678291997,"61.9","115"
"01-026","Unscheduled 4.1","4.1","2015-10-13","237","Serum","eGFRcys","μmol/L",90.8051568362853,"61.9","115"
"01-026","Unscheduled 4.1","4.1","2015-10-13","237","Serum","IgE","mg/L",0,"0.1","0.4"
"01-026","Unscheduled 4.1","4.1","2015-10-13","237","Serum","Magnesium","mmol/L",0.748072146912101,"0.62","0.99"
"01-026","Unscheduled 4.1","4.1","2015-10-13","237","Serum","Phosphorus","mmol/L",1.26699840691195,"0.97","1.45"
"01-026","Unscheduled 4.1","4.1","2015-10-13","237","Blood","Platelet count","x 109/L",223.327231696015,"150","350"
"01-026","Unscheduled 4.1","4.1","2015-10-13","237","Serum","Potassium","mmol/L",4.20517728158001,"3.5","5"
"01-026","Unscheduled 4.1","4.1","2015-10-13","237","Blood","RBC count","x 1012 cells/L",5.5796980135247,"4.2","5.9"
"01-026","Unscheduled 4.1","4.1","2015-10-13","237","Serum","Sodium","mmol/L",135.103360153644,"136","145"
"01-026","Unscheduled 4.1","4.1","2015-10-13","237","Serum","Total Bilirubin","μmol/L",17.9708099365799,"5.1","20.5"
"01-026","Unscheduled 4.1","4.1","2015-10-13","237","Blood","WBC count","x 109 cells/L",9.41665381412177,"4.5","11"
"01-026","Visit 5","5","2015-11-19","274","Serum","Albumin","g/L",38.5974075002568,"35","55"
"01-026","Visit 5","5","2015-11-19","274","Urine","Albumin/Creatinine","mg/g",2.73421815322608,"0","30"
"01-026","Visit 5","5","2015-11-19","274","Serum","Alkaline phosphatase (ALP)","μkat/L",1.34852654766245,"0.5","1.5"
"01-026","Visit 5","5","2015-11-19","274","Serum","Aminotransferase, alanine (ALT)","pkat/L",0.398817982347798,"0","0.58"
"01-026","Visit 5","5","2015-11-19","274","Serum","Aminotransferase, aspartate (AST)","pkat/L",0.00931121396299223,"0","0.58"
"01-026","Visit 5","5","2015-11-19","274","Serum","Bicarbonate","mmol/L",27.1576668753619,"23","28"
"01-026","Visit 5","5","2015-11-19","274","Serum","Blood Urea Nitrogen","mmol/L",4.4753522120307,"2.9","7.1"
"01-026","Visit 5","5","2015-11-19","274","Serum","Calcium","mmol/L",2.22323930974655,"2.2","2.6"
"01-026","Visit 5","5","2015-11-19","274","Serum","Chloride","mmol/L",97.5280936815283,"98","106"
"01-026","Visit 5","5","2015-11-19","274","Serum","Creatinine","μmol/L",100.242503498781,"61.9","115"
"01-026","Visit 5","5","2015-11-19","274","Serum","Cystatin C","mg/L",0.430722248268415,"0.51","0.98"
"01-026","Visit 5","5","2015-11-19","274","Serum","Direct Bilirubin","μmol/L",2.61764884420969,"0","5.1"
"01-026","Visit 5","5","2015-11-19","274","Serum","eGFR","μmol/L",77.8741834702266,"61.9","115"
"01-026","Visit 5","5","2015-11-19","274","Serum","eGFRcys","μmol/L",100.75451712777,"61.9","115"
"01-026","Visit 5","5","2015-11-19","274","Serum","IgE","mg/L",0.370025780180386,"0.1","0.4"
"01-026","Visit 5","5","2015-11-19","274","Serum","Magnesium","mmol/L",0.212259209837063,"0.62","0.99"
"01-026","Visit 5","5","2015-11-19","274","Serum","Phosphorus","mmol/L",1.32038582597095,"0.97","1.45"
"01-026","Visit 5","5","2015-11-19","274","Blood","Platelet count","x 109/L",337.133326375059,"150","350"
"01-026","Visit 5","5","2015-11-19","274","Serum","Potassium","mmol/L",3.21231507879675,"3.5","5"
"01-026","Visit 5","5","2015-11-19","274","Blood","RBC count","x 1012 cells/L",5.09346847709949,"4.2","5.9"
"01-026","Visit 5","5","2015-11-19","274","Serum","Sodium","mmol/L",141.244492762584,"136","145"
"01-026","Visit 5","5","2015-11-19","274","Serum","Total Bilirubin","μmol/L",14.6029904894415,"5.1","20.5"
"01-026","Visit 5","5","2015-11-19","274","Blood","WBC count","x 109 cells/L",9.68162075400699,"4.5","11"
"01-026","Visit 6","6","2016-01-16","332","Serum","Albumin","g/L",53.4045511263131,"35","55"
"01-026","Visit 6","6","2016-01-16","332","Urine","Albumin/Creatinine","mg/g",36.8788656906037,"0","30"
"01-026","Visit 6","6","2016-01-16","332","Serum","Alkaline phosphatase (ALP)","μkat/L",1.27008058074641,"0.5","1.5"
"01-026","Visit 6","6","2016-01-16","332","Serum","Aminotransferase, alanine (ALT)","pkat/L",0.381505341475576,"0","0.58"
"01-026","Visit 6","6","2016-01-16","332","Serum","Aminotransferase, aspartate (AST)","pkat/L",0.487183827149243,"0","0.58"
"01-026","Visit 6","6","2016-01-16","332","Serum","Bicarbonate","mmol/L",20.9838268599372,"23","28"
"01-026","Visit 6","6","2016-01-16","332","Serum","Blood Urea Nitrogen","mmol/L",2.22900669650512,"2.9","7.1"
"01-026","Visit 6","6","2016-01-16","332","Serum","Calcium","mmol/L",2.48461188502746,"2.2","2.6"
"01-026","Visit 6","6","2016-01-16","332","Serum","Chloride","mmol/L",113.029255703922,"98","106"
"01-026","Visit 6","6","2016-01-16","332","Serum","Creatinine","μmol/L",106.452903264559,"61.9","115"
"01-026","Visit 6","6","2016-01-16","332","Serum","Cystatin C","mg/L",0.779236685787455,"0.51","0.98"
"01-026","Visit 6","6","2016-01-16","332","Serum","Direct Bilirubin","μmol/L",5.18656018237875,"0","5.1"
"01-026","Visit 6","6","2016-01-16","332","Serum","eGFR","μmol/L",90.2946874334941,"61.9","115"
"01-026","Visit 6","6","2016-01-16","332","Serum","eGFRcys","μmol/L",80.1695049181123,"61.9","115"
"01-026","Visit 6","6","2016-01-16","332","Serum","IgE","mg/L",0.190243417022391,"0.1","0.4"
"01-026","Visit 6","6","2016-01-16","332","Serum","Magnesium","mmol/L",0.655333690640333,"0.62","0.99"
"01-026","Visit 6","6","2016-01-16","332","Serum","Phosphorus","mmol/L",0.589236562642267,"0.97","1.45"
"01-026","Visit 6","6","2016-01-16","332","Blood","Platelet count","x 109/L",108.3936083711,"150","350"
"01-026","Visit 6","6","2016-01-16","332","Serum","Potassium","mmol/L",4.828391123528,"3.5","5"
"01-026","Visit 6","6","2016-01-16","332","Blood","RBC count","x 1012 cells/L",5.62496729659344,"4.2","5.9"
"01-026","Visit 6","6","2016-01-16","332","Serum","Sodium","mmol/L",138.064994199168,"136","145"
"01-026","Visit 6","6","2016-01-16","332","Serum","Total Bilirubin","μmol/L",,"5.1","20.5"
"01-026","Visit 6","6","2016-01-16","332","Blood","WBC count","x 109 cells/L",10.8180288466935,"4.5","11"
"01-026","End of Study","7","2016-02-19","366","Serum","Albumin","g/L",55.8147485368523,"35","55"
"01-026","End of Study","7","2016-02-19","366","Urine","Albumin/Creatinine","mg/g",20.3811323923142,"0","30"
"01-026","End of Study","7","2016-02-19","366","Serum","Alkaline phosphatase (ALP)","μkat/L",0.932433568339913,"0.5","1.5"
"01-026","End of Study","7","2016-02-19","366","Serum","Aminotransferase, alanine (ALT)","pkat/L",0.129288291328765,"0","0.58"
"01-026","End of Study","7","2016-02-19","366","Serum","Aminotransferase, aspartate (AST)","pkat/L",0,"0","0.58"
"01-026","End of Study","7","2016-02-19","366","Serum","Bicarbonate","mmol/L",,"23","28"
"01-026","End of Study","7","2016-02-19","366","Serum","Blood Urea Nitrogen","mmol/L",3.17368510936361,"2.9","7.1"
"01-026","End of Study","7","2016-02-19","366","Serum","Calcium","mmol/L",2.51985748792093,"2.2","2.6"
"01-026","End of Study","7","2016-02-19","366","Serum","Chloride","mmol/L",97.6868606698322,"98","106"
"01-026","End of Study","7","2016-02-19","366","Serum","Creatinine","μmol/L",88.3464513025582,"61.9","115"
"01-026","End of Study","7","2016-02-19","366","Serum","Cystatin C","mg/L",0.766872433643809,"0.51","0.98"
"01-026","End of Study","7","2016-02-19","366","Serum","Direct Bilirubin","μmol/L",7.71734290317654,"0","5.1"
"01-026","End of Study","7","2016-02-19","366","Serum","eGFR","μmol/L",88.3082673314988,"61.9","115"
"01-026","End of Study","7","2016-02-19","366","Serum","eGFRcys","μmol/L",159.235585579156,"61.9","115"
"01-026","End of Study","7","2016-02-19","366","Serum","IgE","mg/L",0.313925094233902,"0.1","0.4"
"01-026","End of Study","7","2016-02-19","366","Serum","Magnesium","mmol/L",0.595550102582721,"0.62","0.99"
"01-026","End of Study","7","2016-02-19","366","Serum","Phosphorus","mmol/L",1.98475340769598,"0.97","1.45"
"01-026","End of Study","7","2016-02-19","366","Blood","Platelet count","x 109/L",383.326671471416,"150","350"
"01-026","End of Study","7","2016-02-19","366","Serum","Potassium","mmol/L",4.89686155723593,"3.5","5"
"01-026","End of Study","7","2016-02-19","366","Blood","RBC count","x 1012 cells/L",4.52716838665553,"4.2","5.9"
"01-026","End of Study","7","2016-02-19","366","Serum","Sodium","mmol/L",138.671138184199,"136","145"
"01-026","End of Study","7","2016-02-19","366","Serum","Total Bilirubin","μmol/L",1.17298384643621,"5.1","20.5"
"01-026","End of Study","7","2016-02-19","366","Blood","WBC count","x 109 cells/L",5.35192057157375,"4.5","11"
"01-027","Screening","0","2015-06-01","1","Serum","Albumin","g/L",37.2118071877953,"35","55"
"01-027","Screening","0","2015-06-01","1","Urine","Albumin/Creatinine","mg/g",,"0","30"
"01-027","Screening","0","2015-06-01","1","Serum","Alkaline phosphatase (ALP)","μkat/L",0.216408465764535,"0.5","1.5"
"01-027","Screening","0","2015-06-01","1","Serum","Aminotransferase, alanine (ALT)","pkat/L",0.50595192306261,"0","0.58"
"01-027","Screening","0","2015-06-01","1","Serum","Aminotransferase, aspartate (AST)","pkat/L",0,"0","0.58"
"01-027","Screening","0","2015-06-01","1","Serum","Bicarbonate","mmol/L",23.7128605123089,"23","28"
"01-027","Screening","0","2015-06-01","1","Serum","Blood Urea Nitrogen","mmol/L",,"2.9","7.1"
"01-027","Screening","0","2015-06-01","1","Serum","Calcium","mmol/L",2.60560082945398,"2.2","2.6"
"01-027","Screening","0","2015-06-01","1","Serum","Chloride","mmol/L",96.4096466033012,"98","106"
"01-027","Screening","0","2015-06-01","1","Serum","Creatinine","μmol/L",43.6757065567795,"61.9","115"
"01-027","Screening","0","2015-06-01","1","Serum","Cystatin C","mg/L",1.11934901340908,"0.51","0.98"
"01-027","Screening","0","2015-06-01","1","Serum","Direct Bilirubin","μmol/L",4.0161965161884,"0","5.1"
"01-027","Screening","0","2015-06-01","1","Serum","eGFR","μmol/L",103.3822137334,"61.9","115"
"01-027","Screening","0","2015-06-01","1","Serum","eGFRcys","μmol/L",87.000432367133,"61.9","115"
"01-027","Screening","0","2015-06-01","1","Serum","IgE","mg/L",0.253114094903256,"0.1","0.4"
"01-027","Screening","0","2015-06-01","1","Serum","Magnesium","mmol/L",0.960838224274188,"0.62","0.99"
"01-027","Screening","0","2015-06-01","1","Serum","Phosphorus","mmol/L",,"0.97","1.45"
"01-027","Screening","0","2015-06-01","1","Blood","Platelet count","x 109/L",324.415878851358,"150","350"
"01-027","Screening","0","2015-06-01","1","Serum","Potassium","mmol/L",5.32137728724709,"3.5","5"
"01-027","Screening","0","2015-06-01","1","Blood","RBC count","x 1012 cells/L",4.14734181698275,"4.2","5.9"
"01-027","Screening","0","2015-06-01","1","Serum","Sodium","mmol/L",138.068164879683,"136","145"
"01-027","Screening","0","2015-06-01","1","Serum","Total Bilirubin","μmol/L",,"5.1","20.5"
"01-027","Screening","0","2015-06-01","1","Blood","WBC count","x 109 cells/L",,"4.5","11"
"01-027","Visit 1","1","2015-07-24","54","Serum","Albumin","g/L",50.0862458675387,"35","55"
"01-027","Visit 1","1","2015-07-24","54","Urine","Albumin/Creatinine","mg/g",35.1217344292197,"0","30"
"01-027","Visit 1","1","2015-07-24","54","Serum","Alkaline phosphatase (ALP)","μkat/L",0.470400013069788,"0.5","1.5"
"01-027","Visit 1","1","2015-07-24","54","Serum","Aminotransferase, alanine (ALT)","pkat/L",0.308590151110487,"0","0.58"
"01-027","Visit 1","1","2015-07-24","54","Serum","Aminotransferase, aspartate (AST)","pkat/L",0.545069113696222,"0","0.58"
"01-027","Visit 1","1","2015-07-24","54","Serum","Bicarbonate","mmol/L",24.1447496902584,"23","28"
"01-027","Visit 1","1","2015-07-24","54","Serum","Blood Urea Nitrogen","mmol/L",5.38277654735824,"2.9","7.1"
"01-027","Visit 1","1","2015-07-24","54","Serum","Calcium","mmol/L",2.60096601318803,"2.2","2.6"
"01-027","Visit 1","1","2015-07-24","54","Serum","Chloride","mmol/L",102.887057142107,"98","106"
"01-027","Visit 1","1","2015-07-24","54","Serum","Creatinine","μmol/L",69.62179348503,"61.9","115"
"01-027","Visit 1","1","2015-07-24","54","Serum","Cystatin C","mg/L",0.610404550204347,"0.51","0.98"
"01-027","Visit 1","1","2015-07-24","54","Serum","Direct Bilirubin","μmol/L",3.11268079247978,"0","5.1"
"01-027","Visit 1","1","2015-07-24","54","Serum","eGFR","μmol/L",114.80464823627,"61.9","115"
"01-027","Visit 1","1","2015-07-24","54","Serum","eGFRcys","μmol/L",61.1811914224671,"61.9","115"
"01-027","Visit 1","1","2015-07-24","54","Serum","IgE","mg/L",0.18265226956641,"0.1","0.4"
"01-027","Visit 1","1","2015-07-24","54","Serum","Magnesium","mmol/L",0.617353500905566,"0.62","0.99"
"01-027","Visit 1","1","2015-07-24","54","Serum","Phosphorus","mmol/L",,"0.97","1.45"
"01-027","Visit 1","1","2015-07-24","54","Blood","Platelet count","x 109/L",436.28637240807,"150","350"
"01-027","Visit 1","1","2015-07-24","54","Serum","Potassium","mmol/L",3.34291892149449,"3.5","5"
"01-027","Visit 1","1","2015-07-24","54","Blood","RBC count","x 1012 cells/L",4.9596635544317,"4.2","5.9"
"01-027","Visit 1","1","2015-07-24","54","Serum","Sodium","mmol/L",145.234665042401,"136","145"
"01-027","Visit 1","1","2015-07-24","54","Serum","Total Bilirubin","μmol/L",19.9923518572699,"5.1","20.5"
"01-027","Visit 1","1","2015-07-24","54","Blood","WBC count","x 109 cells/L",1.58993005523865,"4.5","11"
"01-028","Screening","0","2015-11-12","1","Serum","Albumin","g/L",65.333294854013,"35","55"
"01-028","Screening","0","2015-11-12","1","Urine","Albumin/Creatinine","mg/g",,"0","30"
"01-028","Screening","0","2015-11-12","1","Serum","Alkaline phosphatase (ALP)","μkat/L",1.15648324585204,"0.5","1.5"
"01-028","Screening","0","2015-11-12","1","Serum","Aminotransferase, alanine (ALT)","pkat/L",0.726080102527165,"0","0.58"
"01-028","Screening","0","2015-11-12","1","Serum","Aminotransferase, aspartate (AST)","pkat/L",0.351353990069371,"0","0.58"
"01-028","Screening","0","2015-11-12","1","Serum","Bicarbonate","mmol/L",25.3741881811392,"23","28"
"01-028","Screening","0","2015-11-12","1","Serum","Blood Urea Nitrogen","mmol/L",,"2.9","7.1"
"01-028","Screening","0","2015-11-12","1","Serum","Calcium","mmol/L",2.58741868592392,"2.2","2.6"
"01-028","Screening","0","2015-11-12","1","Serum","Chloride","mmol/L",98.2683156045997,"98","106"
"01-028","Screening","0","2015-11-12","1","Serum","Creatinine","μmol/L",94.0794372763588,"61.9","115"
"01-028","Screening","0","2015-11-12","1","Serum","Cystatin C","mg/L",0.746855204724553,"0.51","0.98"
"01-028","Screening","0","2015-11-12","1","Serum","Direct Bilirubin","μmol/L",4.15272534298791,"0","5.1"
"01-028","Screening","0","2015-11-12","1","Serum","eGFR","μmol/L",,"61.9","115"
"01-028","Screening","0","2015-11-12","1","Serum","eGFRcys","μmol/L",86.692005511948,"61.9","115"
"01-028","Screening","0","2015-11-12","1","Serum","IgE","mg/L",0.497627557416097,"0.1","0.4"
"01-028","Screening","0","2015-11-12","1","Serum","Magnesium","mmol/L",0.807248432641987,"0.62","0.99"
"01-028","Screening","0","2015-11-12","1","Serum","Phosphorus","mmol/L",,"0.97","1.45"
"01-028","Screening","0","2015-11-12","1","Blood","Platelet count","x 109/L",245.893108096437,"150","350"
"01-028","Screening","0","2015-11-12","1","Serum","Potassium","mmol/L",4.67864875651827,"3.5","5"
"01-028","Screening","0","2015-11-12","1","Blood","RBC count","x 1012 cells/L",6.0826995072745,"4.2","5.9"
"01-028","Screening","0","2015-11-12","1","Serum","Sodium","mmol/L",135.481359312084,"136","145"
"01-028","Screening","0","2015-11-12","1","Serum","Total Bilirubin","μmol/L",,"5.1","20.5"
"01-028","Screening","0","2015-11-12","1","Blood","WBC count","x 109 cells/L",,"4.5","11"
"01-028","Visit 1","1","2016-01-11","61","Serum","Albumin","g/L",42.6112748960526,"35","55"
"01-028","Visit 1","1","2016-01-11","61","Urine","Albumin/Creatinine","mg/g",15.9564753238468,"0","30"
"01-028","Visit 1","1","2016-01-11","61","Serum","Alkaline phosphatase (ALP)","μkat/L",0.605598948400084,"0.5","1.5"
"01-028","Visit 1","1","2016-01-11","61","Serum","Aminotransferase, alanine (ALT)","pkat/L",0.365497353099087,"0","0.58"
"01-028","Visit 1","1","2016-01-11","61","Serum","Aminotransferase, aspartate (AST)","pkat/L",0.619736941361827,"0","0.58"
"01-028","Visit 1","1","2016-01-11","61","Serum","Bicarbonate","mmol/L",24.9290489222672,"23","28"
"01-028","Visit 1","1","2016-01-11","61","Serum","Blood Urea Nitrogen","mmol/L",7.03945933686705,"2.9","7.1"
"01-028","Visit 1","1","2016-01-11","61","Serum","Calcium","mmol/L",2.82308565564256,"2.2","2.6"
"01-028","Visit 1","1","2016-01-11","61","Serum","Chloride","mmol/L",102.339798084072,"98","106"
"01-028","Visit 1","1","2016-01-11","61","Serum","Creatinine","μmol/L",60.7644247263152,"61.9","115"
"01-028","Visit 1","1","2016-01-11","61","Serum","Cystatin C","mg/L",0.773927941603148,"0.51","0.98"
"01-028","Visit 1","1","2016-01-11","61","Serum","Direct Bilirubin","μmol/L",0.654555035948359,"0","5.1"
"01-028","Visit 1","1","2016-01-11","61","Serum","eGFR","μmol/L",118.019057140218,"61.9","115"
"01-028","Visit 1","1","2016-01-11","61","Serum","eGFRcys","μmol/L",55.5171183010876,"61.9","115"
"01-028","Visit 1","1","2016-01-11","61","Serum","IgE","mg/L",0.168793234043804,"0.1","0.4"
"01-028","Visit 1","1","2016-01-11","61","Serum","Magnesium","mmol/L",0.717190877771252,"0.62","0.99"
"01-028","Visit 1","1","2016-01-11","61","Serum","Phosphorus","mmol/L",1.41379481839545,"0.97","1.45"
"01-028","Visit 1","1","2016-01-11","61","Blood","Platelet count","x 109/L",325.5967197018,"150","350"
"01-028","Visit 1","1","2016-01-11","61","Serum","Potassium","mmol/L",4.45095900785855,"3.5","5"
"01-028","Visit 1","1","2016-01-11","61","Blood","RBC count","x 1012 cells/L",5.60578376688216,"4.2","5.9"
"01-028","Visit 1","1","2016-01-11","61","Serum","Sodium","mmol/L",141.762775184126,"136","145"
"01-028","Visit 1","1","2016-01-11","61","Serum","Total Bilirubin","μmol/L",29.6707522445264,"5.1","20.5"
"01-028","Visit 1","1","2016-01-11","61","Blood","WBC count","x 109 cells/L",5.97679863799585,"4.5","11"
"01-028","Unscheduled 1.1","1.1","2016-01-19","69","Serum","Albumin","g/L",39.6054549198157,"35","55"
"01-028","Unscheduled 1.1","1.1","2016-01-19","69","Urine","Albumin/Creatinine","mg/g",5.58051968500149,"0","30"
"01-028","Unscheduled 1.1","1.1","2016-01-19","69","Serum","Alkaline phosphatase (ALP)","μkat/L",1.97286462443281,"0.5","1.5"
"01-028","Unscheduled 1.1","1.1","2016-01-19","69","Serum","Aminotransferase, alanine (ALT)","pkat/L",0.416648889704029,"0","0.58"
"01-028","Unscheduled 1.1","1.1","2016-01-19","69","Serum","Aminotransferase, aspartate (AST)","pkat/L",0.624743972042696,"0","0.58"
"01-028","Unscheduled 1.1","1.1","2016-01-19","69","Serum","Bicarbonate","mmol/L",23.9122133135228,"23","28"
"01-028","Unscheduled 1.1","1.1","2016-01-19","69","Serum","Blood Urea Nitrogen","mmol/L",5.25131882642292,"2.9","7.1"
